timestamp_s,encoder_count,accel_x_mss
0.005,0,0.49383
0.01034,115,0.97079
0.015327,222,1.21284
0.020086,324,1.38663
0.025511,441,1.47628
0.029397,525,1.47114
0.034616,637,1.43466
0.038962,731,1.3767
0.043737,834,1.13842
0.048945,946,1.0903
0.053225,1039,0.90737
0.057887,1139,0.81908
0.063288,1256,0.57063
0.068419,1367,0.39724
0.073587,1479,0.39959
0.078586,1587,0.4444
0.083378,1691,0.36595
0.08898,1812,0.21989
0.094066,1922,0.30123
0.099417,2039,0.10044
0.104126,2141,0.11566
0.109269,2252,0.01194
0.114034,2356,-0.36182
0.119055,2465,-0.49668
0.124022,2573,-0.81627
0.129855,2700,-1.13846
0.134959,2811,-1.33175
0.139919,2919,-1.43696
0.144682,3023,-1.55493
0.150208,3144,-1.68711
0.155289,3255,-1.69576
0.160066,3359,-1.68003
0.164826,3463,-1.40678
0.170578,3589,-1.03146
0.176013,3708,-0.63963
0.180572,3808,-0.24229
0.18548,3915,0.18828
0.190565,4026,0.6216
0.195485,4134,1.11782
0.201563,4268,1.29793
0.205589,4356,1.44424
0.211102,4477,1.77023
0.216773,4602,1.64452
0.221783,4712,1.47439
0.226943,4825,1.36641
0.232172,4940,1.25979
0.236985,5046,1.18357
0.241415,5144,0.96434
0.246405,5254,0.76816
0.251018,5356,0.67996
0.256345,5473,0.56118
0.261295,5582,0.4036
0.266661,5701,0.44451
0.271655,5811,0.49311
0.276905,5927,0.31917
0.281612,6032,0.34634
0.286902,6149,0.14881
0.2919,6259,0.05043
0.297026,6373,-0.11264
0.301935,6482,-0.40801
0.306486,6583,-0.69662
0.311596,6696,-0.92577
0.316191,6798,-1.22451
0.321,6905,-1.34464
0.325973,7015,-1.54358
0.330508,7116,-1.6934
0.335637,7230,-1.61717
0.340045,7328,-1.55178
0.344459,7427,-1.39191
0.349252,7533,-1.10503
0.353554,7629,-0.8651
0.3628,7835,-0.1264
0.36771,7945,0.33419
0.372553,8053,0.59436
0.37727,8159,1.02272
0.382238,8270,1.28625
0.387091,8378,1.56511
0.392716,8504,1.49035
0.396989,8600,1.53372
0.401984,8711,1.60601
0.407024,8824,1.33192
0.412104,8938,1.1373
0.417617,9062,0.75835
0.422656,9175,0.71665
0.427688,9288,0.56031
0.432584,9398,0.46601
0.437142,9500,0.37546
0.442366,9618,0.27966
0.447646,9736,0.28433
0.452963,9856,0.22962
0.458066,9971,0.21413
0.463169,10086,-0.04179
0.468564,10207,-0.08722
0.473618,10321,-0.34545
0.479278,10449,-0.57897
0.484215,10560,-0.97774
0.489194,10673,-1.16666
0.494365,10790,-1.3631
0.499158,10898,-1.57421
0.503906,11005,-1.77709
0.508842,11117,-1.68715
0.513841,11230,-1.6859
0.518921,11345,-1.51078
0.523836,11456,-1.1595
0.52883,11570,-0.72041
0.539367,11809,0.14915
0.544203,11918,0.56734
0.549712,12043,0.90172
0.554399,12150,1.31797
0.559819,12273,1.47315
0.564446,12378,1.56383
0.569356,12490,1.56889
0.574517,12607,1.50989
0.579858,12729,1.3987
0.585393,12855,1.08897
0.590842,12979,0.86156
0.596155,13100,0.8071
0.601206,13216,0.72875
0.607145,13351,0.51028
0.612443,13472,0.34558
0.616786,13571,0.40357
0.622633,13705,0.26137
0.627531,13817,0.28103
0.632588,13933,0.24533
0.637842,14053,0.21736
0.64237,14156,-0.04102
0.64756,14275,-0.2034
0.652545,14389,-0.49338
0.65739,14501,-0.7364
0.662238,14612,-1.19968
0.668083,14746,-1.40694
0.673612,14873,-1.46163
0.677579,14964,-1.60207
0.682319,15073,-1.63434
0.687858,15200,-1.4426
0.693285,15325,-1.06462
0.698681,15449,-0.79805
0.703399,15557,-0.27569
0.70813,15666,0.05321
0.712614,15769,0.56747
0.717106,15873,0.87237
0.722303,15993,1.29083
0.727489,16112,1.57797
0.732439,16226,1.78868
0.737357,16340,1.77647
0.742419,16457,1.60868
0.747764,16580,1.58356
0.752895,16698,1.22631
0.757886,16814,1.17334
0.76315,16935,0.87861
0.768878,17068,0.86565
0.774043,17187,0.52375
0.778823,17298,0.71694
0.784067,17419,0.50475
0.788721,17527,0.48652
0.799113,17768,0.2211
0.809304,18004,0.18064
0.815011,18137,-0.11939
0.819741,18246,-0.5541
0.825285,18375,-0.83474
0.831039,18509,-1.21874
0.836284,18631,-1.41777
0.841639,18755,-1.58169
0.846785,18875,-1.66828
0.851688,18989,-1.66131
0.856157,19093,-1.44919
0.861871,19226,-1.11151
0.866575,19336,-0.71818
0.872244,19468,-0.31206
0.877437,19589,0.11293
0.881963,19694,0.62304
0.887432,19822,0.99975
0.891882,19926,1.2494
0.902326,20169,1.52778
0.907119,20281,1.55331
0.911968,20395,1.58162
0.916263,20495,1.36771
0.921708,20622,1.09326
0.927207,20751,0.99417
0.933382,20895,0.71362
0.93845,21014,0.56763
0.9433,21127,0.50935
0.947621,21229,0.44441
0.953061,21356,0.29807
0.958056,21473,0.4099
0.962916,21587,0.29821
0.967511,21695,0.18895
0.972261,21806,0.05482
0.982224,22040,-0.24706
0.987571,22165,-0.63186
0.992323,22277,-1.01568
0.996951,22385,-1.16963
1.001708,22497,-1.4135
1.006895,22619,-1.57543
1.012292,22746,-1.62432
1.016791,22852,-1.53561
1.021674,22967,-1.47717
1.026702,23085,-1.15676
1.03184,23206,-0.77052
1.03672,23321,-0.33558
1.042346,23453,0.24488
1.047586,23576,0.67494
1.051654,23672,0.91437
1.056922,23796,1.3321
1.061696,23909,1.41495
1.066384,24019,1.50778
1.071164,24132,1.56561
1.076234,24252,1.47805
1.081075,24366,1.47584
1.086206,24487,1.13553
1.091656,24616,0.96138
1.096447,24729,0.82963
1.101209,24841,0.65669
1.106075,24956,0.47118
1.111205,25077,0.44037
1.116654,25206,0.3375
1.122213,25338,0.28196
1.127164,25455,0.27865
1.132042,25570,0.21128
1.137356,25696,0.20982
1.141978,25805,-0.17643
1.147415,25934,-0.38025
1.152321,26050,-0.55773
1.157989,26184,-0.97612
1.163121,26306,-1.16675
1.168111,26424,-1.4647
1.173302,26547,-1.60895
1.178008,26659,-1.6374
1.182917,26775,-1.52968
1.187625,26887,-1.31724
1.192394,27000,-0.93928
1.197508,27121,-0.55403
1.202615,27242,-0.08594
1.208056,27371,0.30411
1.213103,27491,0.83067
1.21829,27614,1.15502
1.223403,27736,1.49351
1.228178,27849,1.69903
1.233452,27975,1.5949
1.238169,28087,1.44619
1.243387,28211,1.42549
1.248392,28330,1.31183
1.253164,28443,1.02421
1.257841,28554,0.95463
1.262944,28676,0.83664
1.267426,28782,0.5878
1.272611,28906,0.65356
1.277548,29023,0.48612
1.282339,29137,0.40123
1.287068,29250,0.43883
1.291841,29363,0.30081
1.297044,29487,0.2627
1.301999,29605,0.11325
1.306454,29711,-0.105
1.316451,29949,-0.63855
1.321181,30062,-0.85578
1.326663,30193,-1.21776
1.332147,30324,-1.44186
1.337115,30442,-1.59713
1.342194,30563,-1.70172
1.347182,30682,-1.53482
1.351726,30790,-1.39415
1.356668,30908,-0.97868
1.361654,31027,-0.60477
1.366425,31141,-0.22078
1.371586,31264,0.32111
1.3764,31379,0.53205
1.381055,31490,1.11812
1.386081,31610,1.34793
1.390302,31711,1.58396
1.394865,31820,1.70867
1.399746,31937,1.75371
1.404848,32058,1.69816
1.409781,32176,1.50099
1.414588,32291,1.30441
1.418924,32395,1.1952
1.424446,32527,0.94229
1.429789,32654,0.78259
1.43424,32761,0.66171
1.439152,32878,0.6115
1.444178,32998,0.45278
1.44948,33125,0.37613
1.454819,33253,0.34
1.459864,33373,0.38175
1.464963,33495,0.28969
1.469981,33615,0.14005
1.474848,33732,-0.15029
1.480091,33857,-0.44227
1.484394,33960,-0.62152
1.489948,34093,-0.90563
1.495217,34219,-1.16872
1.4999,34331,-1.5071
1.505264,34459,-1.65056
1.510129,34576,-1.48759
1.514769,34687,-1.43095
1.519974,34811,-1.23314
1.52491,34930,-0.87885
1.529403,35037,-0.59285
1.535017,35172,-0.09084
1.539997,35291,0.42326
1.544932,35409,0.82014
1.549834,35526,1.10714
1.554933,35648,1.38914
1.559991,35769,1.53341
1.564515,35878,1.6383
1.569771,36004,1.55084
1.574751,36123,1.4816
1.579423,36235,1.19742
1.584397,36354,1.05848
1.588835,36460,0.96808
1.593077,36562,0.88448
1.597641,36671,0.53418
1.602917,36797,0.47258
1.607611,36910,0.5557
1.612392,37024,0.44428
1.617203,37140,0.35539
1.622047,37256,0.33028
1.627565,37388,0.32137
1.632427,37504,0.19411
1.637981,37637,-0.03875
1.643244,37763,-0.23584
1.648009,37878,-0.42692
1.653029,37998,-0.83488
1.657815,38112,-1.01127
1.663267,38243,-1.34067
1.6679,38354,-1.43451
1.67247,38464,-1.58041
1.677407,38582,-1.69004
1.68251,38704,-1.62712
1.687859,38832,-1.36998
1.692845,38952,-1.16614
1.697378,39060,-0.76225
1.702692,39187,-0.298
1.707787,39310,-0.04168
1.712544,39423,0.5316
1.717298,39537,0.70601
1.722386,39659,1.1944
1.727068,39771,1.30015
1.732128,39892,1.48317
1.737372,40018,1.61889
1.742049,40130,1.52158
1.746292,40232,1.17496
1.751657,40360,1.17978
1.756221,40469,1.0038
1.761473,40595,0.84582
1.766744,40721,0.67833
1.771186,40828,0.58905
1.776176,40947,0.53012
1.781483,41074,0.37537
1.78676,41200,0.30475
1.792644,41341,0.21387
1.797871,41466,0.2291
1.802472,41577,0.10172
1.807935,41707,0.0369
1.812707,41821,-0.06634
1.817838,41944,-0.39153
1.822937,42066,-0.61862
1.827425,42174,-0.81678
1.832614,42298,-1.26006
1.83742,42413,-1.39384
1.842072,42524,-1.59323
1.84754,42655,-1.76218
1.852572,42775,-1.80815
1.857733,42898,-1.73693
1.863371,43033,-1.4833
1.868682,43160,-1.12349
1.873583,43277,-0.82374
1.879063,43408,-0.3765
1.883853,43523,0.02094
1.889079,43648,0.48888
1.894356,43774,0.82552
1.899733,43902,1.03314
1.90473,44021,1.30874
1.909368,44132,1.49675
1.914048,44244,1.45409
1.919451,44373,1.34675
1.923736,44475,1.37835
1.928482,44589,1.21024
1.932865,44693,1.09726
1.938007,44816,0.90646
1.943037,44936,0.70412
1.947972,45054,0.6403
1.953213,45179,0.44457
1.957952,45292,0.26233
1.963066,45414,0.37589
1.968373,45540,0.35188
1.973067,45652,0.35355
1.978066,45771,0.12242
1.984092,45915,0.14245
1.98939,46041,-0.13759
1.994141,46155,-0.34886
1.999526,46283,-0.47787
2.00502,46414,-0.78988
2.01,46532,-1.18403
2.014908,46649,-1.36894
2.020006,46771,-1.50528
2.025282,46896,-1.70583
2.030098,47011,-1.79635
2.035149,47131,-1.6537
2.040224,47252,-1.61352
2.045097,47368,-1.40974
2.050551,47497,-1.18177
2.054963,47602,-0.87514
2.059641,47713,-0.54948
2.064608,47832,-0.18823
2.070084,47962,0.31164
2.07499,48078,0.70327
2.079735,48191,1.06089
2.084426,48302,1.25974
2.089241,48417,1.3253
2.094177,48534,1.4462
2.099619,48663,1.41732
2.104722,48784,1.3939
2.108627,48877,1.29182
2.113974,49004,1.04608
2.118971,49122,1.00679
2.12387,49238,0.90517
2.12888,49357,0.53008
2.133745,49473,0.45645
2.138537,49586,0.46566
2.147792,49805,0.36216
2.152523,49917,0.23744
2.157524,50036,0.26987
2.162815,50161,0.29526
2.168278,50290,0.10096
2.173341,50410,0.05644
2.178647,50536,-0.00504
2.182738,50632,-0.26802
2.188104,50759,-0.49939
2.192476,50863,-0.72422
2.197507,50982,-1.05258
2.202629,51103,-1.18018
2.20683,51202,-1.42361
2.211721,51317,-1.55422
2.217119,51445,-1.70358
2.221447,51547,-1.78461
2.226056,51656,-1.7238
2.231363,51781,-1.61437
2.236093,51893,-1.47523
2.241104,52011,-1.16103
2.246027,52127,-0.87783
2.250619,52235,-0.67687
2.256053,52363,-3.05034
2.261132,52483,0.34343
2.266638,52612,0.58696
2.272179,52743,0.9279
2.277292,52863,1.16567
2.282168,52978,1.23538
2.286834,53088,1.38645
2.292082,53211,1.28152
2.297065,53328,1.37841
2.302141,53447,1.41174
2.307375,53570,1.19173
2.312689,53695,0.99662
2.318055,53821,0.80162
2.323262,53943,0.66944
2.328645,54070,0.58098
2.333563,54185,0.39708
2.338212,54294,0.4618
2.342731,54400,0.31313
2.348103,54526,0.27304
2.352994,54641,0.20596
2.357813,54753,0.14941
2.362526,54864,0.15578
2.367373,54977,0.06272
2.372264,55092,0.10706
2.377359,55211,-0.0298
2.382842,55339,-0.1911
2.387518,55448,-0.36238
2.392067,55555,-0.64308
2.397122,55673,-0.86847
2.402241,55792,-1.07556
2.407322,55911,-1.24864
2.412511,56032,-1.49977
2.417734,56154,-1.59563
2.423143,56280,-1.71033
2.428033,56394,-1.7621
2.433021,56511,-1.60383
2.437923,56625,-1.57128
2.442645,56735,-1.21845
2.447621,56851,-0.94718
2.452535,56965,-0.63814
2.456945,57068,-0.35373
2.461775,57180,-0.01815
2.466877,57299,0.25731
2.471929,57416,0.5656
2.476747,57528,0.99693
2.482036,57651,1.25203
2.487467,57777,1.53949
2.492599,57896,1.55112
2.497756,58016,1.60938
2.502721,58131,1.62793
2.507522,58242,1.56432
2.511741,58340,1.45835
2.515972,58438,1.35654
2.52116,58558,1.32365
2.526089,58672,1.12011
2.531759,58803,0.91527
2.537235,58930,0.91454
2.542276,59047,0.61581
2.547555,59169,0.56299
2.553173,59298,0.56368
2.558458,59421,0.50758
2.563191,59530,0.53463
2.568638,59655,0.43952
2.573719,59773,0.27976
2.578778,59889,0.27375
2.583249,59992,0.22268
2.588629,60116,0.28481
2.592949,60216,0.02813
2.597556,60322,-0.05972
2.603241,60453,-0.23758
2.608208,60567,-0.41403
2.613419,60687,-0.80421
2.6177,60785,-0.99601
2.622929,60905,-1.03428
2.62763,61013,-1.33857
2.6328,61132,-1.32175
2.637397,61238,-1.54523
2.641889,61341,-1.6791
2.647339,61466,-1.65389
2.652143,61576,-1.53747
2.661968,61801,-1.30507
2.666499,61904,-1.1564
2.671731,62024,-0.83741
2.676963,62144,-0.55378
2.6817,62252,-0.39333
2.685845,62347,-0.0788
2.690662,62457,0.28099
2.695791,62574,0.50734
2.700643,62685,0.84575
2.705455,62794,1.10412
2.710611,62912,1.35667
2.720975,63148,1.46176
2.726159,63266,1.5487
2.731046,63378,1.45513
2.736733,63507,1.50191
2.741754,63621,1.51851
2.746575,63731,1.25522
2.755968,63944,1.03258
2.761255,64064,0.85826
2.765818,64168,0.78668
2.771395,64294,0.65055
2.776428,64408,0.6591
2.781797,64530,0.53973
2.786818,64644,0.35758
2.792268,64767,0.34263
2.797437,64884,0.30146
2.802982,65009,0.35303
2.80768,65116,0.2744
2.812415,65223,0.26487
2.817655,65341,0.09507
2.822606,65453,0.09872
2.826838,65548,-0.06611
2.832103,65667,-0.27476
2.836963,65776,-0.17927
2.841603,65881,-0.44635
2.847228,66008,-0.67457
2.85185,66112,-0.79142
2.857962,66249,-0.97767
2.862953,66361,-1.15849
2.867868,66472,-1.25739
2.872893,66585,-1.34896
2.877981,66699,-1.59156
2.883377,66820,-1.63526
2.888221,66929,-1.69102
2.892747,67030,-1.6367
2.897693,67141,-1.49267
2.902227,67243,-1.37046
2.906962,67349,-1.23688
2.912023,67462,-1.07226
2.91755,67585,-0.81224
2.92345,67717,-0.44868
2.927774,67814,-0.04553
2.932489,67919,0.18478
2.936981,68019,0.40184
2.942005,68131,0.68287
2.947301,68250,1.02167
2.952325,68362,1.11998
2.957429,68475,1.45844
2.962565,68590,1.48574
2.968151,68714,1.71139
2.972977,68821,1.67995
2.977463,68921,1.78181
2.982562,69034,1.60818
2.987232,69138,1.51253
2.992508,69255,1.38894
2.997247,69360,1.38966
3.002026,69466,1.21768
3.007625,69590,1.14031
3.013126,69712,0.86414
3.01755,69810,0.95384
3.022862,69927,0.75793
3.028419,70050,0.69532
3.032918,70150,0.57176
3.03756,70252,0.53186
3.042675,70365,0.39452
3.046818,70457,0.43402
3.051991,70571,0.4283
3.056836,70678,0.27168
3.062622,70805,0.29165
3.067284,70908,0.20848
3.072793,71029,0.28401
3.077888,71141,0.14618
3.082672,71246,0.07467
3.087833,71360,-0.03452
3.092729,71467,-0.1128
3.097732,71577,-0.2301
3.102952,71691,-0.39683
3.108546,71814,-0.49365
3.113472,71922,-0.75017
3.118477,72032,-0.96804
3.123359,72139,-1.00829
3.128266,72246,-1.21677
3.13291,72347,-1.45058
3.137469,72447,-1.45588
3.142561,72558,-1.61744
3.148121,72680,-1.72799
3.152545,72776,-1.89953
3.157884,72893,-1.8078
3.162633,72996,-1.67169
3.167837,73109,-1.78833
3.173671,73236,-1.6285
3.179662,73367,-1.35172
3.184972,73482,-1.25444
3.189671,73584,-1.05791
3.195052,73701,-0.72912
3.200157,73812,-0.48299
3.205451,73927,-0.26889
3.210362,74033,-0.02083
3.216344,74163,0.22055
3.221326,74271,0.49932
3.226901,74392,0.74768
3.231861,74499,0.95125
3.236742,74604,1.13791
3.241745,74712,1.15793
3.246755,74821,1.32611
3.252247,74939,1.39386
3.257249,75047,1.46556
3.261836,75146,1.51319
3.266779,75252,1.53823
3.271919,75363,1.4923
3.276726,75466,1.30553
3.281886,75577,1.21633
3.287317,75694,1.15972
3.292214,75799,1.12781
3.297148,75905,1.02322
3.302359,76017,0.84145
3.307219,76121,0.85731
3.312163,76227,0.62826
3.317515,76342,0.53246
3.322518,76449,0.57186
3.327903,76564,0.48164
3.333182,76677,0.45905
3.338395,76789,0.39006
3.343708,76902,0.43472
3.349178,77019,0.28364
3.353845,77118,0.30445
3.358405,77216,0.12414
3.362914,77312,0.44827
3.368668,77434,0.14976
3.373024,77527,0.04477
3.378241,77638,0.0552
3.383792,77756,-0.00655
3.389341,77874,-0.00735
3.394361,77980,-0.29789
3.398952,78078,-0.27029
3.404205,78189,-0.42486
3.409322,78298,-0.65817
3.413988,78397,-0.88346
3.418911,78501,-0.87707
3.423994,78608,-1.00665
3.428414,78702,-1.27107
3.433096,78801,-1.41633
3.437621,78897,-1.44359
3.442653,79003,-1.54556
3.448154,79119,-1.60406
3.452916,79219,-1.68745
3.457953,79325,-1.78664
3.46338,79440,-1.86978
3.468865,79555,-1.7376
3.473434,79651,-1.71812
3.478398,79756,-1.50908
3.483355,79860,-1.41258
3.488134,79960,-1.41534
3.493675,80077,-1.17624
3.498899,80186,-0.98269
3.504099,80295,-0.76027
3.509279,80404,-0.49342
3.514784,80519,-0.41997
3.520088,80630,-0.09877
3.52484,80730,0.16729
3.529698,80831,0.34844
3.534823,80938,0.59806
3.540387,81054,0.84359
3.545431,81160,0.99559
3.550852,81273,1.14846
3.555617,81372,1.24139
3.560931,81483,1.30377
3.566546,81600,1.37263
3.570977,81692,1.50103
3.57613,81799,1.44789
3.581384,81908,1.38662
3.587108,82027,1.29137
3.591764,82124,1.38227
3.597077,82234,1.36936
3.601895,82334,1.13671
3.606972,82439,1.07729
3.612298,82549,0.99648
3.61717,82650,0.86644
3.62183,82747,0.77459
3.626568,82845,0.64885
3.63227,82963,0.59168
3.63775,83076,0.4122
3.642763,83179,0.38257
3.648027,83288,0.37411
3.653003,83390,0.26425
3.657972,83493,0.26164
3.662801,83592,0.1564
3.667397,83687,0.20035
3.672342,83788,0.18519
3.67746,83894,0.14734
3.68325,84013,0.17228
3.688131,84113,0.1318
3.692752,84208,0.01864
3.697761,84310,0.12217
3.702727,84412,-0.01295
3.707655,84513,0.00518
3.712605,84614,-0.12997
3.71714,84707,-0.1328
3.72181,84803,-0.38223
3.726725,84903,-0.27019
3.731824,85007,-0.38229
3.736785,85109,-0.65992
3.741427,85203,-0.68027
3.746568,85308,-0.87425
3.751251,85404,-1.02241
3.756572,85512,-0.97586
3.761573,85614,-1.06288
3.766784,85720,-1.27106
3.771676,85820,-1.49955
3.777124,85930,-1.54666
3.781911,86028,-1.53702
3.787154,86134,-1.66362
3.792329,86239,-1.8064
3.7973,86340,-1.8299
3.802653,86448,-1.74326
3.808129,86559,-1.7669
3.812753,86653,-1.72868
3.817752,86754,-1.67333
3.822941,86859,-1.45917
3.82772,86956,-1.42662
3.832593,87054,-1.34429
3.837761,87159,-1.10977
3.842363,87251,-0.85524
3.847939,87364,-0.72829
3.852579,87457,-0.52266
3.857305,87553,-0.26678
3.862262,87653,-0.03708
3.867307,87754,0.23241
3.87215,87851,0.38417
3.877103,87951,0.59375
3.881948,88048,0.723
3.88648,88139,0.92069
3.891612,88243,1.07311
3.89678,88346,1.21104
3.902607,88463,1.39272
3.907626,88564,1.39189
3.912769,88667,1.48799
3.918066,88773,1.5391
3.922689,88865,1.56045
3.927674,88965,1.33497
3.933197,89075,1.53179
3.937585,89163,1.36445
3.942391,89259,1.29674
3.947052,89352,1.18019
3.952451,89460,1.25374
3.957213,89555,1.10707
3.96238,89658,0.99552
3.967577,89761,0.77326
3.972495,89859,0.78832
3.978269,89974,0.72511
3.9832,90072,0.74062
3.987619,90160,0.58907
3.992857,90264,0.54722
3.997495,90356,0.41279
4.002139,90448,0.43047
4.00682,90541,0.35943
4.011856,90641,0.33512
4.016845,90740,0.31592
4.021409,90830,0.45729
4.027085,90942,0.37824
4.032695,91053,0.24365
4.037635,91151,0.29343
4.042872,91255,0.21258
4.047593,91348,0.28575
4.052634,91447,0.21057
4.057487,91543,0.11361
4.061994,91632,0.05306
4.066701,91725,-0.02791
4.071823,91826,-0.26951
4.076856,91925,-0.24087
4.082066,92027,-0.36399
4.086896,92123,-0.5274
4.092492,92233,-0.59849
4.097866,92338,-0.72979
4.102809,92435,-0.87805
4.108547,92548,-1.10433
4.113571,92647,-1.24614
4.118931,92752,-1.4234
4.123819,92848,-1.43495
4.129267,92954,-1.60157
4.134091,93049,-1.59353
4.138841,93142,-1.76575
4.14289,93221,-1.82708
4.148448,93330,-1.86016
4.153483,93428,-1.74221
4.158145,93520,-1.71992
4.163328,93621,-1.60345
4.168848,93729,-1.42685
4.173827,93826,-1.35485
4.178037,93908,-1.26997
4.183261,94010,-1.06957
4.188173,94106,-0.80109
4.192931,94198,-0.46608
4.197814,94293,-0.39662
4.202049,94376,-0.25263
4.207567,94483,-0.02862
4.212635,94582,0.23881
4.217993,94686,0.47916
4.223254,94788,0.64045
4.22836,94887,0.7598
4.233881,94995,1.0698
4.238848,95091,1.25227
4.243533,95182,1.36749
4.248685,95282,1.34625
4.253979,95384,1.45817
4.259011,95482,1.55305
4.264096,95580,1.43814
4.268832,95672,1.44023
4.273966,95771,1.50067
4.279382,95876,1.34905
4.284451,95974,1.25833
4.289517,96072,1.24798
4.294746,96173,1.19011
4.299771,96270,0.99097
4.304743,96366,1.10156
4.309853,96464,0.92976
4.314861,96561,0.66267
4.320134,96663,0.6075
4.325125,96759,0.65869
4.330214,96857,0.40245
4.335129,96951,0.4063
4.340058,97046,0.36559
4.34486,97139,0.31074
4.349848,97235,0.30784
4.354942,97332,0.31009
4.359742,97425,0.27623
4.365185,97529,0.35554
4.37016,97625,0.29317
4.375036,97718,0.35451
4.380591,97825,0.26707
4.385539,97920,0.3073
4.390917,98023,0.09708
4.396125,98123,0.04367
4.400748,98211,-0.08049
4.405867,98309,-0.20078
4.411324,98414,-0.37497
4.416053,98504,-0.49165
4.42098,98598,-0.52093
4.425606,98687,-0.66511
4.429921,98769,-0.79391
4.434898,98864,-0.98422
4.439794,98958,-1.27915
4.444819,99054,-1.38011
4.449763,99148,-1.57921
4.454865,99246,-1.57934
4.459272,99330,-1.61107
4.464241,99424,-1.73287
4.469063,99516,-1.70753
4.473947,99609,-1.77609
4.478713,99700,-1.76356
4.483629,99794,-1.7812
4.488327,99883,-1.73733
4.492477,99962,-1.60486
4.497718,100062,-1.2763
4.502731,100157,-1.18842
4.508197,100261,-1.03904
4.513407,100360,-0.80993
4.517994,100448,-0.45046
4.523197,100546,-0.18644
4.528336,100644,-0.02559
4.533318,100739,0.31554
4.538075,100829,0.60672
4.542915,100921,0.77999
4.547893,101015,0.91669
4.553278,101117,1.04902
4.558748,101221,1.229
4.563817,101317,1.24592
4.568858,101412,1.41664
4.57352,101501,1.4688
4.578792,101601,1.42503
4.5838,101695,1.45454
4.589034,101794,1.4461
4.594374,101895,1.31093
4.599386,101990,1.22789
4.604285,102083,0.97985
4.609843,102188,0.89413
4.614867,102283,0.80722
4.619479,102370,0.7954
4.624018,102456,0.70749
4.629348,102556,0.39367
4.634258,102649,0.34419
4.639131,102741,0.40055
4.643787,102829,0.3837
4.64903,102928,0.3815
4.653874,103019,0.20991
4.658929,103114,0.28936
4.66396,103209,0.16098
4.668924,103303,0.24169
4.674013,103399,0.292
4.678818,103489,0.15619
4.6838,103583,0.02379
4.688836,103678,-0.00633
4.693843,103772,0.00325
4.698442,103859,-0.1712
4.703959,103963,-0.2549
4.709401,104065,-0.3965
4.714388,104159,-0.69223
4.718917,104244,-0.76314
4.723728,104334,-0.89688
4.728668,104427,-1.22195
4.734148,104530,-1.34202
4.73898,104621,-1.44148
4.744301,104721,-1.5309
4.749,104809,-1.70501
4.753524,104894,-1.82344
4.758938,104996,-1.80378
4.763538,105082,-1.78637
4.768888,105182,-1.72785
4.774097,105280,-1.52458
4.779528,105382,-1.33665
4.785366,105492,-1.19286
4.790162,105582,-0.96855
4.794258,105658,-0.76471
4.798976,105747,-0.35315
4.803772,105837,-0.09095
4.808582,105927,0.18118
4.813498,106019,0.44765
4.819418,106130,0.83575
4.824477,106225,0.90156
4.829489,106319,1.1612
4.834478,106412,1.28602
4.838817,106493,1.53707
4.84373,106585,1.33399
4.848864,106681,1.45872
4.854394,106785,1.4634
4.859296,106877,1.33323
4.864242,106969,1.25614
4.869935,107076,1.18989
4.874974,107170,0.97826
4.879534,107255,0.75548
4.88406,107340,0.66192
4.888925,107431,0.48972
4.89429,107531,0.49721
4.899291,107625,0.2839
4.903841,107710,0.33914
4.908998,107806,0.24088
4.914013,107900,0.2291
4.91885,107990,0.27533
4.923691,108081,0.15675
4.929086,108181,0.07462
4.934254,108278,0.10209
4.939141,108369,-0.09507
4.944286,108465,0.03543
4.949201,108557,-0.10723
4.954879,108663,-0.23591
4.959411,108748,-0.4253
4.964363,108840,-0.58099
4.96911,108929,-0.84516
4.974347,109027,-0.96998
4.97939,109121,-1.21577
4.984306,109213,-1.30308
4.989288,109306,-1.50972
4.993824,109390,-1.80609
4.999043,109488,-1.76012
5.003669,109574,-1.87157
5.009059,109675,-1.75911
5.013833,109764,-1.57379
5.019249,109865,-1.43745
5.024055,109955,-1.225
5.028773,110043,-1.15507
5.033843,110137,-0.84118
5.039653,110246,-0.515
5.044555,110337,-0.12771
5.050013,110439,0.28485
5.055393,110539,0.62123
5.059989,110625,0.81354
5.065491,110728,1.18445
5.070115,110814,1.33946
5.075277,110910,1.48204
5.080232,111003,1.51974
5.085108,111094,1.47421
5.089669,111179,1.41608
5.094667,111272,1.35771
5.098918,111351,1.25815
5.103222,111432,1.14216
5.107897,111519,1.0322
5.113523,111624,0.61578
5.118263,111712,0.64816
5.123319,111807,0.43408
5.128489,111903,0.36325
5.133455,111996,0.29497
5.137931,112079,0.28065
5.143198,112178,0.44526
5.147888,112265,0.20497
5.152732,112356,0.20374
5.157957,112453,0.13093
5.162715,112542,-0.02937
5.167671,112634,0.04215
5.171888,112713,-0.05976
5.176599,112801,-0.37799
5.181406,112891,-0.36333
5.18648,112986,-0.61681
5.190967,113069,-0.71992
5.195596,113156,-1.02051
5.201088,113258,-1.18908
5.205894,113348,-1.46675
5.2109,113441,-1.64743
5.2162,113540,-1.66948
5.220815,113627,-1.78699
5.225594,113716,-1.7874
5.230703,113811,-1.62801
5.235401,113899,-1.40452
5.240403,113993,-1.26284
5.245947,114096,-0.78792
5.251007,114191,-0.44064
5.256029,114285,0.02615
5.26111,114380,0.21267
5.266137,114473,0.62678
5.271609,114576,0.83481
5.276305,114664,1.17993
5.280978,114751,1.37378
5.286015,114845,1.40124
5.290229,114924,1.39798
5.295191,115017,1.3294
5.299955,115106,1.24203
5.304655,115194,1.23469
5.309132,115278,1.14254
5.314115,115371,0.92573
5.318883,115460,0.68268
5.324001,115556,0.60392
5.329053,115650,0.46795
5.334207,115747,0.37958
5.338972,115836,0.27618
5.34356,115922,0.32221
5.348391,116012,0.36127
5.353404,116106,0.25582
5.358444,116201,0.1941
5.363512,116296,0.1754
5.368207,116384,0.02737
5.372608,116466,-0.17665
5.377501,116558,-0.40927
5.382439,116651,-0.49866
5.387739,116750,-0.8176
5.392746,116844,-0.95371
5.398153,116945,-1.33045
5.40382,117052,-1.55992
5.408683,117143,-1.5971
5.413891,117241,-1.77012
5.419053,117337,-1.68825
5.423818,117427,-1.58742
5.428507,117515,-1.26341
5.433182,117603,-0.97185
5.438402,117701,-0.64613
5.442559,117779,-0.22043
5.447769,117877,0.11312
5.453017,117976,0.62951
5.458262,118074,1.00995
5.463066,118164,1.10577
5.468087,118259,1.40984
5.472445,118341,1.57818
5.47715,118429,1.59608
5.482327,118527,1.55474
5.487302,118621,1.31504
5.491945,118708,1.24178
5.49683,118800,1.10343
5.502058,118898,0.99057
5.507119,118994,0.61586
5.512439,119094,0.54586
5.516993,119180,0.53286
5.522056,119275,0.50802
5.527508,119378,0.39872
5.53196,119462,0.37383
5.537113,119559,0.37247
5.541712,119646,0.25682
5.547066,119747,0.17407
5.551947,119839,-0.16892
5.556865,119932,-0.42213
5.561835,120026,-0.48338
5.567008,120124,-0.77073
5.571903,120216,-1.09903
5.577362,120320,-1.38968
5.582285,120413,-1.58796
5.587375,120509,-1.58906
5.592907,120614,-1.5568
5.597589,120702,-1.38176
5.602915,120803,-1.14194
5.608266,120904,-0.70179
5.613898,121011,-0.20064
5.618541,121099,0.27804
5.624408,121210,0.72525
5.629456,121306,1.02257
5.633899,121390,1.35603
5.638484,121477,1.58637
5.643079,121564,1.61815
5.648128,121660,1.61682
5.652941,121752,1.51447
5.657911,121846,1.38622
5.663041,121943,1.07641
5.66824,122042,0.95461
5.67263,122126,0.7677
5.678101,122230,0.67867
5.682997,122323,0.57153
5.687839,122415,0.4368
5.692503,122504,0.41289
5.697808,122605,0.4245
5.702444,122693,0.22886
5.707786,122795,0.18173
5.712396,122883,0.09056
5.717459,122979,-0.19286
5.722671,123079,-0.52892
5.727508,123171,-0.81283
5.732305,123262,-1.0956
5.737336,123358,-1.26864
5.742376,123455,-1.61149
5.747861,123559,-1.64379
5.753047,123658,-1.48239
5.757476,123743,-1.34756
5.761324,123817,-1.26777
5.76623,123910,-0.93337
5.771457,124010,-0.32027
5.776081,124099,0.19021
5.780341,124181,0.60738
5.78538,124277,1.00912
5.790645,124378,1.35937
5.796002,124481,1.40923
5.800835,124573,1.60748
5.806023,124673,1.49003
5.810624,124761,1.28724
5.814995,124845,1.29818
5.820104,124943,1.01005
5.824605,125029,0.85257
5.829909,125131,0.55185
5.839412,125314,0.63784
5.844581,125413,0.42308
5.849547,125509,0.40683
5.854606,125606,0.29369
5.859746,125705,0.15954
5.864409,125795,-0.04547
5.869098,125885,-0.14673
5.873912,125978,-0.45346
5.878846,126073,-0.87378
5.883791,126169,-1.08166
5.888702,126263,-1.50563
5.892812,126343,-1.59331
5.897608,126435,-1.65162
5.902568,126531,-1.63791
5.906933,126616,-1.41718
5.912359,126721,-0.98555
5.917045,126811,-0.60788
5.922191,126911,0.01507
5.927354,127011,0.5341
5.932542,127111,1.03222
5.937357,127204,1.44932
5.942797,127310,1.64843
5.952857,127505,1.46138
5.958164,127608,1.30291
5.96291,127700,1.08839
5.968211,127803,0.8775
5.97311,127898,0.73207
5.978237,127998,0.73098
5.983343,128097,0.47773
5.988364,128195,0.34298
5.993997,128304,0.41052
5.999778,128417,0.33252
6.004916,128517,0.23492
6.010137,128619,-0.09999
6.015065,128715,-0.39628
6.020188,128815,-0.75247
6.024834,128906,-1.0266
6.030361,129014,-1.37176
6.040361,129209,-1.59609
6.046439,129328,-1.29081
6.051426,129425,-1.05091
6.055978,129514,-0.52237
6.060712,129607,-0.07677
6.06589,129708,0.53078
6.070426,129797,0.93394
6.074953,129886,1.26677
6.080079,129987,1.39733
6.085404,130091,1.56927
6.090285,130187,1.46619
6.094809,130276,1.38886
6.099844,130375,1.10145
6.104389,130464,0.86055
6.109094,130556,0.69308
6.114157,130656,0.49076
6.119225,130756,0.39358
6.124675,130863,0.26362
6.129906,130966,0.21789
6.134921,131065,0.15736
6.140223,131169,-0.15408
6.144964,131263,-0.25963
6.149289,131348,-0.6184
6.154448,131450,-0.86649
6.158992,131540,-1.23084
6.164289,131645,-1.57057
6.169689,131751,-1.67776
6.174531,131847,-1.76445
6.179583,131947,-1.46769
6.18504,132055,-1.0366
6.190514,132164,-0.45241
6.195048,132254,-0.03341
6.199697,132346,0.55525
6.204671,132444,0.92628
6.209654,132543,1.36932
6.21508,132651,1.54148
6.219779,132744,1.59724
6.225237,132853,1.35297
6.229746,132942,1.1184
6.23507,133048,1.00516
6.239856,133144,0.82662
6.24511,133248,0.71292
6.250102,133348,0.45661
6.255428,133454,0.39467
6.260028,133546,0.43983
6.265066,133646,0.25275
6.270105,133747,0.07863
6.275293,133850,-0.1861
6.280249,133949,-0.52623
6.284891,134042,-0.92043
6.289498,134134,-1.1178
6.29463,134237,-1.48481
6.299639,134337,-1.63844
6.304091,134426,-1.53411
6.309077,134526,-1.30184
6.313308,134611,-0.98677
6.318453,134714,-0.45912
6.32299,134805,-0.04354
6.327757,134901,0.55818
6.332493,134996,1.02427
6.336868,135084,1.32442
6.341527,135178,1.56138
6.346561,135279,1.56358
6.351829,135385,1.3897
6.356724,135484,1.20506
6.361617,135582,0.95493
6.366841,135687,0.59692
6.371569,135783,0.47683
6.37626,135877,0.39202
6.380674,135966,0.23654
6.385723,136068,0.20826
6.39074,136170,0.11192
6.396356,136283,-0.02933
6.400684,136371,-0.13641
6.406183,136482,-0.53324
6.411774,136595,-1.05779
6.417533,136712,-1.42671
6.422495,136812,-1.64409
6.427942,136923,-1.68906
6.432722,137020,-1.47837
6.437286,137112,-1.06597
6.442126,137211,-0.46092
6.44753,137320,0.25022
6.451909,137409,0.67669
6.456873,137510,1.21714
6.462416,137623,1.5876
6.467012,137717,1.64825
6.471946,137817,1.36101
6.476748,137915,1.28682
6.481363,138009,1.09852
6.486929,138123,0.87641
6.49185,138223,0.60449
6.497194,138332,0.36357
6.502473,138440,0.31204
6.508155,138556,0.28376
6.513408,138663,0.19355
6.51838,138765,0.06121
6.523153,138863,-0.2526
6.527832,138959,-0.61823
6.532681,139058,-0.88196
6.538207,139171,-1.41946
6.543514,139280,-1.58625
6.548433,139381,-1.78328
6.553754,139490,-1.57563
6.558557,139589,-1.14261
6.563605,139693,-0.58688
6.568485,139793,-0.00094
6.573639,139899,0.7216
6.578669,140003,1.11732
6.584346,140120,1.43426
6.589738,140231,1.4501
6.595215,140344,1.31624
6.599861,140440,1.10717
6.605377,140553,0.84634
6.610604,140661,0.4737
6.615855,140770,0.3886
6.621047,140877,0.17137
6.626732,140995,0.28377
6.631638,141096,0.11835
6.636722,141202,-0.0412
6.642144,141314,-0.33665
6.647221,141419,-0.66395
6.652008,141519,-1.06028
6.656767,141617,-1.48099
6.661879,141723,-1.7811
6.667075,141831,-1.90477
6.672105,141936,-1.67817
6.677523,142048,-1.18982
6.682941,142161,-0.58109
6.688,142266,-0.02896
6.693053,142372,0.5367
6.697837,142471,1.01278
6.703241,142584,1.42772
6.708515,142694,1.35735
6.719384,142921,0.87452
6.724795,143034,0.61959
6.729607,143135,0.35584
6.734398,143235,0.18641
6.738515,143321,0.18457
6.743238,143420,0.15807
6.748561,143531,0.1337
6.753768,143640,-0.24009
6.758918,143748,-0.34605
6.763761,143850,-0.75706
6.76847,143949,-1.07792
6.77407,144066,-1.55913
6.779088,144172,-1.89332
6.784475,144285,-1.94851
6.789401,144388,-1.7093
6.793853,144482,-1.37742
6.799405,144599,-0.71093
6.804625,144709,-0.08007
6.808753,144796,0.3956
6.813967,144906,0.87846
6.819401,145020,1.18902
6.824841,145135,1.37153
6.830087,145246,1.20316
6.834957,145348,0.89865
6.839917,145453,0.70466
6.844693,145554,0.39245
6.848985,145645,0.36288
6.85361,145743,0.20061
6.858556,145848,0.10975
6.863249,145947,-0.03061
6.86774,146042,-0.11057
6.872228,146137,-0.22009
6.877567,146250,-0.59165
6.882415,146353,-0.8937
6.887203,146455,-1.3302
6.891955,146556,-1.78632
6.897089,146665,-2.00951
6.902296,146776,-1.91627
6.907277,146882,-1.74758
6.912234,146987,-1.19741
6.916989,147088,-0.75321
6.922872,147213,0.10229
6.928051,147324,0.6373
6.933134,147432,0.97135
6.938412,147545,1.34862
6.943137,147646,1.29552
6.947903,147747,1.11842
6.952917,147854,0.9656
6.957843,147960,0.51588
6.962874,148067,0.35735
6.967866,148174,0.29484
6.972837,148280,0.12292
6.977842,148388,0.12703
6.982532,148488,-0.04877
6.988223,148610,-0.08552
6.993505,148723,-0.36959
6.998931,148840,-0.81498
7.004385,148957,-1.21358
7.009412,149065,-1.71805
7.014193,149167,-1.7544
7.019012,149271,-1.84976
7.023928,149377,-1.62676
7.028648,149478,-1.13065
7.033798,149589,-0.52604
7.039296,149707,0.24478
7.044357,149816,0.7909
7.049091,149918,1.17761
7.054449,150034,1.39967
7.05897,150131,1.38759
7.064101,150242,1.19819
7.069447,150357,0.9893
7.073929,150454,0.6087
7.078769,150559,0.37376
7.08361,150663,0.34883
7.088167,150762,0.22841
7.092929,150865,0.2197
7.098269,150980,0.0712
7.103589,151096,-0.25008
7.108463,151201,-0.48283
7.11338,151308,-0.71031
7.119109,151432,-1.16279
7.124726,151554,-1.58772
7.129744,151663,-1.90347
7.135029,151778,-1.96183
7.140295,151892,-1.56746
7.145014,151994,-1.19301
7.149605,152094,-0.73467
7.154924,152210,0.05666
7.15971,152314,0.56903
7.164806,152425,1.01984
7.169881,152536,1.38388
7.174602,152638,1.42351
7.17953,152746,1.25666
7.184369,152851,0.93509
7.189248,152958,0.71023
7.194148,153065,0.57138
7.198842,153167,0.14972
7.203798,153275,0.22048
7.209286,153395,0.15854
7.214129,153501,0.05565
7.218616,153599,-0.02916
7.223405,153704,-0.31244
7.228339,153812,-0.57696
7.233035,153915,-0.92887
7.237691,154017,-1.37274
7.243476,154143,-1.82122
7.24815,154246,-1.88617
7.253272,154358,-1.8211
7.258381,154470,-1.67557
7.263247,154577,-1.19236
7.26852,154693,-0.70898
7.273363,154799,0.07374
7.27814,154904,0.64123
7.282858,155008,0.9938
7.287679,155114,1.40259
7.292781,155226,1.3739
7.297328,155326,1.27607
7.302573,155441,1.01203
7.307172,155543,0.79567
7.311297,155633,0.61755
7.316103,155739,0.35481
7.320912,155845,0.20844
7.325241,155941,0.21284
7.32969,156039,0.13664
7.334557,156146,0.05526
7.340049,156267,-0.1345
7.344916,156375,-0.38877
7.349717,156481,-0.6231
7.355086,156600,-1.00263
7.360126,156711,-1.43229
7.364871,156816,-1.72838
7.370384,156938,-1.74809
7.375619,157054,-1.84781
7.380764,157167,-1.37392
7.385597,157275,-1.02758
7.3902,157376,-0.39333
7.395508,157494,0.32127
7.400556,157606,0.75217
7.405497,157716,1.16193
7.410922,157836,1.33789
7.415478,157937,1.26442
7.4208,158055,1.13261
7.426457,158181,0.83543
7.431751,158298,0.56175
7.437636,158429,0.2876
7.442629,158540,0.19546
7.44761,158651,0.14862
7.452259,158754,0.09589
7.457623,158874,-0.01406
7.463041,158994,-0.09687
7.467529,159094,-0.32833
7.473122,159219,-0.71888
7.477686,159321,-1.1723
7.482358,159425,-1.52045
7.486947,159527,-1.81833
7.491514,159629,-1.87118
7.496711,159745,-1.76151
7.501474,159851,-1.65229
7.505597,159943,-1.21445
7.510793,160059,-0.70588
7.515913,160174,-0.02256
7.521403,160296,0.62245
7.526161,160403,1.17723
7.53085,160507,1.44106
7.53584,160619,1.32734
7.540685,160727,1.41495
7.545259,160830,1.09537
7.550064,160937,0.88856
7.555018,161048,0.66309
7.559551,161150,0.46535
7.564709,161265,0.41054
7.569169,161365,0.19293
7.57384,161470,0.13596
7.578858,161582,0.07837
7.584279,161704,0.05004
7.588914,161808,-0.15742
7.593588,161913,-0.42885
7.597775,162007,-0.61793
7.602752,162119,-0.92731
7.608241,162242,-1.42334
7.613168,162352,-1.72476
7.618569,162474,-1.87359
7.623409,162583,-1.72488
7.628909,162706,-1.50549
7.633998,162821,-1.07016
7.639241,162939,-0.57083
7.643919,163044,0.02017
7.649078,163160,0.62003
7.654723,163287,1.02456
7.659592,163397,1.32663
7.66994,163630,1.32689
7.675074,163746,1.15529
7.679771,163851,1.00978
7.684216,163952,0.80013
7.689583,164073,0.59966
7.694979,164194,0.43975
7.699278,164291,0.25429
7.704131,164401,0.26527
7.709213,164516,0.10513
7.713688,164617,0.03731
7.718897,164734,-0.06482
7.723713,164843,-0.34734
7.7281,164942,-0.68911
7.73304,165054,-1.01997
7.738307,165173,-1.27087
7.743346,165287,-1.53249
7.748124,165395,-1.82017
7.753373,165514,-1.84859
7.758474,165629,-1.75994
7.763529,165743,-1.33706
7.7687,165860,-0.85662
7.773389,165966,-0.45395
7.778849,166090,0.25905
7.783411,166193,0.7006
7.788839,166316,1.15901
7.793738,166427,1.32709
7.798656,166539,1.47022
7.803948,166659,1.52263
7.808746,166767,1.26058
7.814006,166887,1.15969
7.818823,166996,0.94577
7.823691,167106,0.5364
7.828892,167224,0.48077
7.833822,167336,0.3324
7.838481,167442,0.24279
7.843117,167547,0.2807
7.848171,167662,0.14393
7.853151,167775,0.11802
7.858292,167892,0.02281
7.862631,167990,-0.24108
7.867045,168091,-0.41369
7.871882,168200,-0.84196
7.876902,168314,-1.19731
7.881721,168424,-1.49261
7.886466,168532,-1.66038
7.891184,168639,-1.79023
7.89646,168759,-1.64029
7.901172,168866,-1.42946
7.905707,168969,-1.25861
7.910593,169080,-0.66643
7.915643,169195,-0.30491
7.92075,169312,0.21942
7.92545,169419,0.70506
7.930604,169536,1.21734
7.935504,169647,1.40438
7.940466,169760,1.44264
7.945742,169880,1.41169
7.950607,169991,1.40324
7.955625,170105,1.19043
7.960353,170213,1.1395
7.965095,170321,0.81164
7.970671,170448,0.61088
7.97607,170571,0.43864
7.980338,170669,0.3321
7.985676,170790,0.31332
7.990147,170892,0.22972
7.995653,171018,0.26788
8.000615,171131,0.04261
8.005265,171237,0.0496
8.010077,171346,-0.16348
8.01568,171474,-0.459
8.020877,171593,-0.83617
8.025756,171704,-1.19378
8.031059,171825,-1.47056
8.0359,171935,-1.64502
8.040414,172038,-1.88135
8.045182,172147,-1.92386
8.050183,172261,-1.77704
8.054204,172353,-1.48818
8.058802,172458,-1.28515
8.063221,172559,-0.85832
8.068132,172671,-0.51805
8.073184,172786,-0.00247
8.078266,172902,0.41319
8.083273,173017,0.78311
8.087839,173121,1.05486
8.0934,173248,1.31555
8.098182,173357,1.42387
8.103182,173471,1.49001
8.108498,173593,1.23075
8.113609,173709,1.07592
8.11889,173830,0.7534
8.12345,173934,0.57427
8.127835,174034,0.54304
8.138154,174270,0.21769
8.14348,174392,0.15669
8.148796,174513,0.05334
8.153434,174619,0.13099
8.158342,174731,0.07687
8.163495,174849,-0.0848
8.168369,174960,-0.27014
8.172836,175062,-0.42523
8.178032,175181,-0.49973
8.183153,175298,-0.80974
8.188245,175415,-1.14114
8.193247,175529,-1.27285
8.19881,175656,-1.57487
8.204364,175783,-1.78379
8.209716,175905,-1.86943
8.214421,176013,-1.83691
8.220077,176142,-1.68768
8.225507,176266,-1.41577
8.230873,176389,-0.98985
8.235669,176498,-0.60161
8.24047,176608,-0.23613
8.245869,176731,0.14598
8.250855,176845,0.7316
8.255825,176959,1.01286
8.260458,177065,1.08713
8.265703,177185,1.28466
8.270375,177291,1.34399
8.275292,177404,1.32179
8.280325,177519,1.32944
8.285465,177636,1.2256
8.290459,177750,1.00393
8.295469,177865,0.93775
8.301026,177992,0.81676
8.305728,178099,0.63961
8.310381,178205,0.40693
8.315225,178316,0.27262
8.319801,178421,0.33135
8.324208,178521,0.28258
8.328846,178627,0.17508
8.33345,178732,0.04294
8.338495,178848,0.27097
8.343521,178962,0.03791
8.348481,179076,0.11611
8.352698,179172,-0.16052
8.357465,179281,-0.2999
8.362473,179395,-0.50413
8.366917,179497,-0.67307
8.371737,179607,-0.94157
8.376799,179722,-1.01043
8.38126,179824,-1.24923
8.386537,179944,-1.63933
8.39084,180043,-1.79198
8.395292,180144,-1.87809
8.400553,180264,-1.7817
8.40631,180396,-1.75967
8.411773,180520,-1.67711
8.416785,180635,-1.59969
8.421854,180750,-1.24029
8.426897,180865,-0.93269
8.431767,180976,-0.6125
8.436707,181089,-0.3479
8.441988,181209,0.06326
8.44697,181323,0.38593
8.452111,181440,0.77029
8.457428,181561,1.05537
8.4623,181673,1.23428
8.466838,181776,1.31064
8.472257,181899,1.43113
8.477446,182018,1.42393
8.483326,182152,1.31593
8.488237,182263,1.45753
8.494111,182397,1.18754
8.499279,182515,1.07414
8.504863,182642,0.90499
8.510052,182760,0.80744
8.514217,182855,0.72536
8.519856,182983,0.6678
8.525132,183103,0.45965
8.530102,183216,0.43608
8.53549,183339,0.39387
8.541328,183472,0.23229
8.546772,183596,0.21045
8.552164,183718,0.24039
8.557211,183833,0.09554
8.562017,183942,0.08857
8.56744,184066,0.12354
8.572417,184179,-0.06434
8.577673,184298,0.03549
8.583057,184420,-0.35497
8.587846,184529,-0.33352
8.593049,184647,-0.6065
8.598054,184761,-0.75677
8.602726,184867,-0.76679
8.607253,184970,-1.07202
8.612537,185090,-1.24909
8.618015,185214,-1.45469
8.623027,185327,-1.60808
8.628179,185444,-1.84988
8.63357,185567,-1.75778
8.638728,185684,-1.7897
8.64334,185788,-1.80593
8.649398,185925,-1.5995
8.65385,186026,-1.51595
8.659553,186155,-1.38603
8.664037,186257,-1.25271
8.669076,186371,-1.06304
8.674106,186485,-0.71474
8.679325,186603,-0.53135
8.684232,186714,-0.30971
8.689063,186823,-0.00785
8.69407,186936,0.16652
8.698911,187046,0.379
8.704412,187170,0.76858
8.709616,187288,0.89376
8.714191,187391,1.02594
8.719714,187516,1.17968
8.724829,187632,1.27764
8.730027,187749,1.26931
8.734726,187855,1.59806
8.739412,187961,1.4243
8.744657,188079,1.607
8.750335,188207,1.39687
8.755185,188317,1.37473
8.760699,188441,1.37884
8.765654,188553,1.20121
8.771283,188679,1.1815
8.775771,188781,1.18798
8.780898,188896,0.99025
8.785941,189010,0.9644
8.791135,189126,0.78582
8.79591,189234,0.80799
8.801094,189351,0.75477
8.806319,189468,0.52401
8.811294,189580,0.61043
8.816473,189696,0.51871
8.821806,189816,0.33325
8.827094,189935,0.43693
8.831702,190038,0.47231
8.836408,190144,0.43788
8.841687,190263,0.33595
8.846492,190370,0.4086
8.856506,190595,0.21407
8.861543,190708,0.34346
8.871665,190935,0.21628
8.876376,191040,0.26651
8.881444,191154,0.11162
8.887171,191282,-0.02912
8.891978,191390,0.07098
8.89674,191496,-0.07478
8.902114,191616,-0.07016
8.907288,191732,-0.25982
8.911693,191831,-0.34428
8.916212,191932,-0.36128
8.92167,192053,-0.50105
8.926621,192164,-0.78279
8.93212,192287,-0.72042
8.937742,192412,-0.9556
8.943005,192530,-1.06632
8.947891,192639,-1.1771
8.952551,192742,-1.22937
8.957188,192846,-1.29895
8.962456,192963,-1.41266
8.967657,193079,-1.40407
8.972608,193189,-1.59854
8.977628,193301,-1.73267
8.983044,193421,-1.66618
8.987984,193531,-1.70422
8.993157,193646,-1.76933
8.99765,193746,-1.65031
9.002148,193846,-1.69159
9.006477,193942,-1.71025
9.011306,194049,-1.65156
9.016142,194157,-1.60372
9.020777,194259,-1.55582
9.025693,194368,-1.48589
9.030256,194470,-1.47527
9.035047,194576,-1.49585
9.040159,194689,-1.34381
9.044669,194789,-1.206
9.049489,194896,-1.1857
9.054803,195013,-0.99744
9.059971,195127,-0.93041
9.06535,195246,-0.8561
9.070338,195357,-0.57647
9.075755,195476,-0.6067
9.08097,195592,-0.54036
9.085677,195695,-0.43128
9.090684,195806,-0.30244
9.094626,195893,-0.22617
9.099572,196002,-0.17402
9.104103,196102,-0.03442
9.109145,196213,0.23844
9.114359,196328,0.23539
9.119877,196449,0.30664
9.12511,196564,0.52949
9.129982,196672,0.4528
9.139656,196884,0.62006
9.144991,197001,0.80371
9.149544,197101,0.92481
9.155166,197225,1.03878
9.1602,197335,1.03682
9.170319,197557,1.12855
9.175551,197672,1.2061
9.179943,197768,1.26694
9.184477,197867,1.35119
9.189431,197976,1.36499
9.194482,198086,1.27153
9.199567,198197,1.46064
9.204419,198304,1.52624
9.209518,198415,1.52699
9.213969,198512,1.5523
9.219052,198623,1.57412
9.224784,198748,1.55388
9.229484,198851,1.51094
9.234316,198956,1.63996
9.239545,199070,1.36988
9.245179,199193,1.45782
9.250251,199303,1.59969
9.255557,199419,1.59949
9.260773,199532,1.51475
9.265878,199643,1.45014
9.270894,199752,1.42476
9.276171,199867,1.534
9.281094,199973,1.53863
9.286171,200084,1.50838
9.291017,200189,1.42679
9.295944,200295,1.49319
9.300766,200400,1.41215
9.305004,200492,1.38941
9.309896,200598,1.45334
9.315423,200717,1.4132
9.320402,200825,1.55437
9.325034,200925,1.30979
9.330092,201034,1.46734
9.33537,201148,1.37167
9.340628,201262,1.30972
9.34552,201367,1.4149
9.350401,201473,1.46612
9.35579,201589,1.37447
9.361284,201707,1.29926
9.366372,201817,1.35242
9.371082,201918,1.29237
9.376396,202032,1.31238
9.380923,202130,1.30139
9.386039,202240,1.39761
9.390995,202346,1.34683
9.395808,202449,1.32844
9.400726,202555,1.25243
9.406179,202672,1.30114
9.411948,202795,1.28711
9.416238,202887,1.21648
9.420877,202987,1.18841
9.425895,203094,1.19246
9.430101,203184,1.20727
9.434977,203288,1.25576
9.439818,203392,1.22653
9.445067,203504,1.15152
9.450109,203611,1.27915
9.455493,203726,1.12007
9.460754,203838,1.0866
9.466389,203959,1.11559
9.476204,204168,1.15739
9.481092,204272,1.19385
9.486487,204386,1.2673
9.491056,204483,1.20044
9.49635,204596,1.25977
9.501342,204702,1.13018
9.506134,204804,1.04886
9.511229,204912,1.15707
9.516692,205027,1.09671
9.521651,205132,1.11755
9.52731,205252,1.1568
9.532051,205353,1.2363
9.542193,205567,1.16607
9.547797,205685,1.13606
9.552635,205788,1.08282
9.557335,205887,1.10183
9.562464,205995,1.11614
9.567664,206104,1.17162
9.572309,206202,1.06798
9.577558,206313,1.06706
9.582209,206411,1.18928
9.587253,206517,1.14763
9.591913,206615,1.13402
9.596342,206708,1.2009
9.601275,206811,1.18553
9.605909,206909,1.20705
9.611138,207018,1.19323
9.616613,207133,1.12907
9.621658,207239,1.33534
9.626332,207337,1.24988
9.630887,207432,1.21836
9.635686,207532,1.23634
9.641204,207648,1.2054
9.646037,207749,1.15476
9.651436,207861,1.39266
9.65602,207957,1.29887
9.661795,208077,1.37073
9.666781,208181,1.29426
9.671515,208280,1.25214
9.676208,208378,1.34081
9.681387,208485,1.3684
9.685963,208581,1.30221
9.690281,208670,1.44201
9.695422,208777,1.42609
9.700374,208880,1.39345
9.705399,208984,1.31194
9.710848,209097,1.32946
9.715686,209197,1.3532
9.720935,209306,1.3601
9.72603,209412,1.31901
9.730926,209513,1.33786
9.735899,209616,1.19832
9.741212,209725,1.28653
9.746181,209828,1.22922
9.750808,209923,1.15136
9.75563,210023,1.11235
9.760578,210125,1.16968
9.765685,210230,1.12853
9.770905,210338,1.12594
9.781632,210558,0.98986
9.786311,210654,0.91838
9.790889,210748,1.00253
9.796222,210858,0.95066
9.801696,210970,0.79317
9.806421,211067,0.84371
9.811375,211168,0.63328
9.816688,211277,0.55507
9.821858,211383,0.57369
9.826986,211488,0.53916
9.831697,211584,0.50959
9.836573,211684,0.42001
9.841642,211787,0.30903
9.846429,211885,0.26692
9.852546,212009,0.16004
9.857474,212110,0.14995
9.862835,212219,-0.0651
9.867643,212317,-0.04315
9.873001,212426,-0.19474
9.877525,212518,-0.17779
9.882768,212624,-0.3289
9.887885,212728,-0.33204
9.893303,212838,-0.54634
9.898063,212934,-0.59075
9.903188,213038,-0.61394
9.908722,213150,-0.7988
9.913284,213242,-0.79086
9.918026,213338,-0.85893
9.923188,213443,-0.84765
9.928002,213540,-1.0284
9.932932,213639,-1.12043
9.938748,213756,-1.11627
9.94331,213848,-1.24487
9.948839,213960,-1.2231
9.95364,214056,-1.34062
9.958343,214151,-1.37796
9.962863,214242,-1.44208
9.967968,214344,-1.45734
9.973201,214450,-1.56082
9.978471,214555,-1.64734
9.983519,214656,-1.62191
9.989158,214769,-1.80888
9.994232,214871,-1.73498
9.9999,214985,-1.79087
10.004648,215079,-1.80447
10.009666,215180,-1.81111
10.014723,215281,-1.73843
10.019484,215376,-1.84089
10.024343,215473,-1.85265
10.029684,215579,-1.7392
10.034647,215678,-1.62585
10.039266,215770,-1.75782
10.043312,215851,-1.71929
10.048555,215955,-1.63442
10.053483,216053,-1.63089
10.058553,216154,-1.60021
10.063281,216247,-1.61072
10.06828,216347,-1.64364
10.073304,216446,-1.51156
10.078459,216548,-1.58555
10.083665,216651,-1.46009
10.088412,216745,-1.41097
10.093372,216843,-1.25571
10.099034,216955,-1.23548
10.10446,217062,-1.18933
10.109442,217161,-1.17074
10.113919,217249,-1.14496
10.118606,217341,-0.96401
10.123644,217441,-0.84592
10.128102,217528,-0.90863
10.132523,217615,-0.9325
10.137547,217714,-0.78966
10.14224,217806,-0.6612
10.147282,217905,-0.73526
10.152432,218007,-0.60764
10.157529,218106,-0.48311
10.162609,218206,-0.43835
10.167331,218299,-0.32962
10.172581,218401,-0.3762
10.177341,218494,-0.24166
10.181926,218584,-0.31104
10.186982,218683,-0.11487
10.191754,218776,-0.19808
10.196938,218877,-0.12203
10.201666,218970,0.01193
10.207111,219076,-0.07488
10.211914,219169,0.011
10.217024,219269,0.12819
10.222422,219374,0.26994
10.226794,219459,0.1173
10.231759,219555,0.26833
10.241794,219750,0.13239
10.246953,219850,0.07117
10.251789,219944,0.14745
10.256044,220026,0.11875
10.261136,220125,0.15306
10.265693,220213,0.23792
10.270698,220310,0.18162
10.275776,220408,0.07933
10.281209,220513,0.24219
10.286224,220609,0.20239
10.291174,220705,0.32673
10.296181,220801,0.17876
10.301178,220898,0.23711
10.305731,220985,0.37433
10.310791,221083,0.16375
10.315451,221172,0.29045
10.320239,221264,0.30804
10.325248,221360,0.28502
10.331098,221473,0.42451
10.336069,221568,0.48426
10.341143,221665,0.38795
10.346301,221764,0.49527
10.351692,221867,0.55004
10.356584,221961,0.56051
10.361288,222051,0.62452
10.365831,222137,0.65166
10.370668,222230,0.71577
10.375135,222315,0.73681
10.379923,222406,0.75707
10.384371,222491,0.73183
10.389807,222595,0.74757
10.394738,222688,0.85385
10.400326,222795,1.0792
10.405568,222894,1.00622
10.410804,222994,1.02688
10.416473,223101,0.97038
10.421741,223201,1.10838
10.426566,223293,1.19203
10.432194,223400,1.07725
10.437195,223494,1.29198
10.44174,223580,1.29986
10.446388,223668,1.23108
10.451731,223769,1.28807
10.456523,223860,1.43451
10.466517,224048,1.49962
10.471767,224147,1.48115
10.476374,224234,1.46005
10.482064,224341,1.43286
10.487078,224436,1.54867
10.492262,224533,1.40446
10.496467,224612,1.54372
10.501492,224707,1.51148
10.506032,224792,1.57222
10.511074,224887,1.40999
10.516198,224983,1.56995
10.520692,225067,1.50183
10.526134,225169,1.47113
10.531337,225266,1.47916
10.536728,225367,1.51742
10.542115,225468,1.30733
10.546794,225555,1.37749
10.55196,225652,1.41201
10.55687,225743,1.25245
10.561893,225837,1.23708
10.566688,225927,1.26706
10.571861,226023,1.15149
10.576912,226117,1.1455
10.581447,226201,1.08778
10.586491,226295,0.95605
10.591776,226393,0.97229
10.596577,226483,0.92861
10.60142,226573,1.00524
10.606321,226664,0.93382
10.611016,226751,0.76261
10.615421,226832,0.66874
10.620863,226933,0.64325
10.625795,227024,0.49908
10.631118,227123,0.49255
10.636264,227218,0.44732
10.640698,227300,0.27603
10.645379,227387,0.19358
10.650755,227486,0.20958
10.656195,227586,0.02704
10.660821,227671,-0.01848
10.666089,227769,0.06015
10.671369,227866,-0.10104
10.676247,227956,-0.18706
10.68095,228042,-0.31753
10.685879,228133,-0.21427
10.690982,228227,-0.3854
10.696132,228321,-0.37147
10.70162,228422,-0.39348
10.706437,228510,-0.5087
10.711349,228600,-0.60051
10.715641,228679,-0.68986
10.720289,228764,-0.59929
10.725173,228854,-0.85411
10.729651,228936,-0.85985
10.734767,229029,-0.74796
10.739691,229119,-0.91469
10.745168,229219,-0.89933
10.751007,229326,-1.02832
10.756247,229422,-0.98732
10.761518,229518,-0.94929
10.765973,229599,-1.14816
10.770685,229685,-1.16986
10.775936,229781,-1.05261
10.781257,229877,-1.22705
10.786169,229967,-1.07609
10.791033,230055,-1.21509
10.796414,230153,-1.34683
10.801385,230243,-1.29555
10.806645,230339,-1.38731
10.811746,230431,-1.42522
10.81682,230523,-1.49203
10.821847,230614,-1.39492
10.82703,230708,-1.46964
10.83276,230812,-1.61351
10.837623,230900,-1.52707
10.843224,231001,-1.69506
10.848572,231098,-1.60079
10.853975,231196,-1.54751
10.859116,231289,-1.59724
10.864224,231381,-1.52161
10.869021,231467,-1.51356
10.873933,231556,-1.69943
10.878563,231639,-1.57893
10.883314,231725,-1.71455
10.888613,231820,-1.72889
10.894007,231917,-1.78603
10.89867,232001,-1.75246
10.904301,232103,-1.64275
10.909006,232187,-1.71189
10.914504,232286,-1.77648
10.91956,232377,-1.66655
10.92438,232463,-1.58305
10.928939,232545,-1.67156
10.933538,232627,-1.82521
10.938627,232719,-1.68563
10.94362,232808,-1.7483
10.94906,232905,-1.63022
10.954197,232997,-1.7628
10.959152,233086,-1.74191
10.964463,233181,-1.74518
10.968995,233262,-1.67329
10.97416,233354,-1.85523
10.979256,233445,-1.60299
10.984123,233532,-1.69314
10.988819,233616,-1.68716
10.993615,233701,-1.72934
10.99876,233793,-1.70812
11.004667,233898,-1.60293
11.009538,233985,-1.57782
11.014494,234073,-1.52005
11.019523,234163,-1.61525
11.024442,234250,-1.64225
11.029306,234337,-1.56306
11.034579,234431,-1.69867
11.04381,234594,-1.5724
11.048512,234678,-1.59336
11.0533,234763,-1.56497
11.058517,234855,-1.50638
11.063695,234947,-1.42003
11.069156,235044,-1.4361
11.073988,235130,-1.46931
11.078977,235218,-1.33216
11.08449,235316,-1.30689
11.089632,235407,-1.28905
11.094426,235491,-1.34836
11.099827,235587,-1.19032
11.104561,235670,-1.14062
11.109234,235753,-1.23139
11.114123,235839,-1.09076
11.118736,235921,-1.15407
11.123445,236004,-1.08654
11.128083,236086,-1.10941
11.132784,236169,-1.04159
11.137383,236250,-0.94208
11.141818,236328,-0.93591
11.147065,236420,-0.75833
11.152028,236508,-0.87401
11.156234,236582,-0.89418
11.160756,236661,-0.80394
11.165661,236748,-0.54396
11.169967,236823,-0.56681
11.175236,236916,-0.44996
11.180589,237010,-0.37292
11.185868,237103,-0.19503
11.19077,237189,-0.29406
11.195818,237277,-0.2012
11.200917,237367,-0.1121
11.206424,237464,0.01133
11.211241,237548,0.05772
11.215919,237630,0.09519
11.220905,237717,0.17394
11.225639,237800,0.37103
11.230761,237890,0.36978
11.241015,238070,0.55887
11.246292,238162,0.6695
11.250531,238236,0.71067
11.255253,238319,0.72643
11.260091,238403,0.80726
11.265161,238492,0.97412
11.270355,238583,1.11139
11.275245,238668,1.18195
11.280495,238760,1.20203
11.285195,238842,1.15821
11.290445,238934,1.21454
11.295308,239018,1.31064
11.299903,239099,1.19302
11.305277,239192,1.36245
11.309851,239272,1.41061
11.314993,239362,1.35378
11.319563,239441,1.24087
11.325192,239539,1.34805
11.33049,239632,1.37279
11.335289,239715,1.31
11.340169,239800,1.26886
11.345368,239891,1.33413
11.35013,239974,1.3147
11.354588,240051,1.31587
11.359597,240138,1.06911
11.364514,240224,1.1095
11.369752,240315,1.06837
11.374397,240396,0.94734
11.38022,240497,0.92995
11.384753,240576,0.76376
11.389352,240655,0.71429
11.394413,240743,0.73826
11.399485,240831,0.82633
11.404287,240915,0.52972
11.409194,241000,0.50001
11.413967,241083,0.49197
11.419485,241178,0.39424
11.424553,241266,0.38422
11.428993,241343,0.38221
11.433437,241420,0.39121
11.438939,241516,0.23797
11.443792,241600,0.19804
11.448454,241681,0.35725
11.453713,241772,0.24468
11.458576,241856,0.1354
11.463676,241944,0.17606
11.468687,242031,0.24911
11.473777,242119,0.10816
11.478376,242199,0.08764
11.483737,242292,0.06167
11.488455,242373,0.15412
11.493205,242455,0.02869
11.498251,242543,-0.04819
11.503007,242625,-0.19783
11.512728,242793,-0.21489
11.517266,242871,-0.36768
11.522028,242954,-0.53206
11.526837,243037,-0.60591
11.531694,243121,-0.72101
11.536107,243197,-1.00344
11.541136,243284,-1.11964
11.546322,243374,-1.09206
11.551348,243460,-1.31351
11.556414,243548,-1.46342
11.561794,243641,-1.58081
11.567101,243732,-1.67591
11.572152,243820,-1.8038
11.582339,243995,-1.88381
11.587148,244078,-1.75767
11.592765,244175,-1.73476
11.598057,244267,-1.57073
11.602844,244349,-1.5378
11.608342,244444,-1.24706
11.613288,244529,-0.90541
11.618247,244615,-0.93648
11.623313,244702,-0.56931
11.628067,244784,-0.22545
11.633069,244871,-0.1157
11.637571,244948,0.0467
11.642623,245035,0.46312
11.647977,245128,0.52239
11.652953,245213,0.80593
11.65784,245298,1.01648
11.662112,245371,1.2433
11.66681,245452,1.32653
11.671951,245541,1.4146
11.676943,245627,1.39657
11.68242,245721,1.42952
11.687731,245813,1.31572
11.697688,245985,1.20836
11.70247,246067,1.14551
11.707378,246152,1.02789
11.712616,246242,0.791
11.717559,246327,0.85258
11.722749,246417,0.70937
11.728033,246508,0.52414
11.732342,246582,0.57971
11.736856,246660,0.3551
11.742021,246749,0.41789
11.746624,246828,0.33748
11.756635,247001,0.30368
11.761734,247088,0.23283
11.766926,247178,0.19669
11.771782,247262,-0.01912
11.777027,247352,-0.00401
11.782356,247444,-0.11174
11.787131,247526,-0.21681
11.791723,247605,-0.36911
11.796879,247694,-0.58289
11.801564,247775,-0.73944
11.806644,247863,-0.99576
11.811448,247945,-1.33056
11.81589,248022,-1.52272
11.821218,248114,-1.64924
11.826079,248198,-1.79277
11.831488,248291,-1.68017
11.836484,248377,-1.71594
11.841481,248463,-1.61734
11.846395,248548,-1.29324
11.851567,248637,-1.06715
11.856607,248724,-0.83485
11.861597,248810,-0.3002
11.866342,248892,0.04512
11.87144,248980,0.34163
11.876096,249060,0.75423
11.881328,249151,1.09036
11.886354,249237,1.29316
11.890926,249316,1.45689
11.895564,249396,1.53532
11.900981,249490,1.54183
11.906049,249577,1.4271
11.910781,249659,1.41175
11.915818,249746,1.24664
11.920581,249828,1.07129
11.926146,249924,1.02593
11.931136,250011,0.7484
11.936497,250103,0.61927
11.940648,250175,0.49382
11.945108,250252,0.47306
11.949748,250332,0.49611
11.954589,250416,0.22078
11.959368,250499,0.29681
11.964226,250583,0.35692
11.96936,250671,0.11185
11.97418,250755,-0.01375
11.979642,250849,-0.13179
11.984351,250931,-0.26499
11.989825,251025,-0.70482
11.995039,251116,-1.03515
11.999821,251198,-1.25474
12.004583,251281,-1.47473
12.009526,251366,-1.56843
12.014839,251458,-1.73334
12.019982,251548,-1.67697
12.025101,251636,-1.54115
12.029396,251711,-1.22755
12.034211,251794,-0.87719
12.039219,251881,-0.44688
12.044052,251965,-0.06973
12.049618,252061,0.3063
12.054088,252139,0.82963
12.058951,252223,1.11522
12.0644,252318,1.51689
12.069793,252411,1.46185
12.075103,252503,1.54523
12.079548,252581,1.53851
12.083887,252656,1.28022
12.088667,252739,1.11267
12.092885,252812,0.88475
12.097591,252894,0.70461
12.10173,252966,0.43007
12.107073,253059,0.3975
12.111984,253144,0.37739
12.116909,253230,0.33398
12.122343,253324,0.20468
12.128107,253425,0.20274
12.132675,253504,-0.02826
12.137563,253589,-0.24004
12.141836,253664,-0.49704
12.146975,253753,-0.66356
12.15165,253835,-1.01294
12.156818,253925,-1.37146
12.162506,254024,-1.611
12.168129,254122,-1.71334
12.17346,254215,-1.6825
12.178724,254307,-1.41112
12.184001,254399,-1.06799
12.189089,254487,-0.57944
12.194988,254590,0.04783
12.200276,254683,0.59883
12.205559,254775,1.12293
12.210041,254853,1.32358
12.214732,254935,1.46879
12.219507,255019,1.53908
12.22482,255112,1.38511
12.22972,255198,1.26789
12.234958,255289,0.98261
12.240387,255384,0.79014
12.245498,255474,0.63538
12.250738,255566,0.27283
12.256572,255668,0.20547
12.261656,255757,0.28052
12.266127,255835,0.23197
12.271355,255927,0.09611
12.276001,256009,-0.22528
12.281469,256105,-0.63792
12.286401,256191,-0.86562
12.291265,256277,-1.16605
12.296207,256363,-1.57963
12.301323,256453,-1.69351
12.306172,256539,-1.65839
12.311529,256633,-1.41552
12.316515,256720,-1.17529
12.321308,256805,-0.47282
12.326384,256894,0.12022
12.331894,256991,0.68333
12.336474,257072,1.062
12.34153,257161,1.43645
12.346268,257245,1.52264
12.351053,257329,1.5151
12.35608,257418,1.30445
12.361058,257505,1.01026
12.366561,257603,0.87884
12.372077,257700,0.62374
12.376847,257784,0.4123
12.382186,257879,0.3912
12.38766,257975,0.18754
12.392901,258068,0.1227
12.397705,258153,0.06658
12.402619,258240,-0.28102
12.40761,258329,-0.58789
12.412481,258415,-1.05768
12.417259,258500,-1.40989
12.422908,258600,-1.73311
12.427847,258687,-1.68293
12.432528,258770,-1.38995
12.437216,258854,-1.03547
12.442443,258946,-0.38144
12.447103,259029,0.32807
12.452087,259118,0.87394
12.457384,259212,1.34756
12.46211,259296,1.5682
12.466322,259371,1.54836
12.471478,259463,1.55847
12.476283,259548,1.19123
12.480693,259627,1.04258
12.486136,259724,0.80592
12.491007,259811,0.61005
12.496184,259903,0.40023
12.501536,259999,0.40356
12.506245,260083,0.17794
12.511461,260176,0.05717
12.515964,260256,-0.2058
12.521873,260362,-0.76606
12.527013,260454,-1.22891
12.531751,260539,-1.61255
12.536779,260629,-1.77872
12.541256,260709,-1.6479
12.546627,260805,-1.26435
12.556804,260987,-0.00514
12.561755,261076,0.73573
12.566349,261159,1.14766
12.571342,261248,1.38221
12.576143,261335,1.48073
12.581728,261435,1.33825
12.586521,261521,1.04459
12.59178,261616,0.79627
12.596714,261705,0.39863
12.602257,261804,0.27009
12.606673,261884,0.25108
12.61105,261963,0.22029
12.61569,262046,0.20032
12.620821,262139,-0.38729
12.625507,262224,-0.42981
12.63051,262314,-0.99356
12.635029,262395,-1.45668
12.639611,262478,-1.62051
12.644029,262558,-1.72636
12.649381,262655,-1.46496
12.654536,262748,-0.83334
12.659745,262843,-0.09974
12.664353,262926,0.53141
12.669135,263013,1.08605
12.674361,263107,1.50061
12.680037,263210,1.6995
12.685087,263302,1.38636
12.689303,263379,1.15797
12.694145,263467,0.9126
12.699226,263559,0.6256
12.70454,263656,0.42451
12.709514,263746,0.27224
12.714143,263830,0.34537
12.718747,263914,0.07087
12.723658,264004,-0.34277
12.728507,264092,-0.64639
12.73316,264177,-1.14513
12.738173,264268,-1.48929
12.742892,264354,-1.7342
12.748252,264452,-1.43507
12.753336,264545,-0.93861
12.758455,264639,-0.1215
12.763584,264733,0.60827
12.768657,264826,1.20487
12.774167,264926,1.52472
12.778767,265011,1.50701
12.783545,265098,1.27391
12.788685,265193,1.00598
12.793536,265282,0.72507
12.798686,265376,0.64467
12.803362,265462,0.4965
12.807823,265544,0.33106
12.812726,265634,0.30154
12.818022,265732,-0.015
12.823175,265827,-0.4594
12.827791,265912,-0.96394
12.832587,266000,-1.46772
12.837598,266092,-1.59472
12.842594,266184,-1.48123
12.848108,266286,-1.06983
12.853111,266379,-0.20829
12.857801,266465,0.54879
12.862622,266554,1.1363
12.867454,266644,1.44732
12.872431,266736,1.64997
12.878052,266840,1.36223
12.883258,266936,0.89977
12.888573,267035,0.6953
12.893135,267120,0.46205
12.898236,267214,0.34676
12.90304,267303,0.37805
12.907788,267392,0.12693
12.912571,267480,-0.20996
12.917382,267570,-0.7432
12.922732,267670,-1.2612
12.928129,267770,-1.68747
12.932849,267858,-1.63235
12.938147,267957,-1.15456
12.942594,268040,-0.64978
12.947543,268132,0.06323
12.952904,268232,1.05216
12.957807,268324,1.402
12.962688,268415,1.55216
12.967843,268511,1.29532
12.972728,268603,1.041
12.977675,268695,0.6817
12.988618,268900,0.33711
12.99387,268999,0.2012
12.999136,269098,0.02639
13.004081,269190,-0.40549
13.008838,269280,-0.80988
13.01426,269382,-1.3477
13.01972,269484,-1.62177
13.024677,269578,-1.42898
13.029145,269662,-0.96125
13.03475,269768,-0.13638
13.039887,269864,0.70193
13.044904,269959,1.33571
13.049842,270052,1.547
13.055371,270157,1.41699
13.06005,270245,0.9789
13.06437,270327,0.82748
13.069346,270421,0.39788
13.073804,270505,0.33951
13.078951,270603,0.15299
13.083549,270690,0.0649
13.08898,270793,-0.33264
13.094042,270889,-0.823
13.098856,270980,-1.30038
13.103324,271065,-1.67951
13.108706,271167,-1.66598
13.113075,271250,-1.46889
13.117968,271343,-0.70881
13.123261,271444,0.16582
13.127989,271534,0.94579
13.133099,271632,1.33811
13.137857,271722,1.43391
13.142307,271807,1.27876
13.147293,271902,0.91131
13.152358,271999,0.61946
13.156943,272087,0.53948
13.16199,272183,0.30165
13.16712,272281,0.10037
13.172712,272388,-0.071
13.177478,272480,-0.51654
13.182255,272571,-1.04181
13.187259,272667,-1.6672
13.191996,272758,-1.82804
13.197035,272855,-1.54248
13.201462,272940,-1.09863
13.206387,273034,-0.13889
13.2107,273117,0.67571
13.215811,273216,1.3521
13.220978,273315,1.49416
13.225672,273405,1.35524
13.23033,273495,1.02846
13.235561,273596,0.67466
13.239997,273682,0.45588
13.244523,273769,0.23222
13.249394,273863,0.23495
13.25426,273957,-0.02992
13.259386,274056,-0.40508
13.264237,274150,-0.89159
13.269291,274248,-1.50208
13.274643,274352,-1.87676
13.279287,274442,-1.75419
13.284476,274542,-1.08313
13.290625,274661,-0.26351
13.29597,274765,0.75441
13.301321,274869,1.27468
13.306614,274972,1.40476
13.311791,275073,1.18877
13.316406,275163,0.81109
13.326487,275359,0.18273
13.331133,275450,0.18392
13.336054,275546,0.08932
13.340849,275639,-0.35834
13.345525,275730,-0.7962
13.350851,275835,-1.52589
13.356355,275942,-1.81741
13.360956,276032,-2.04034
13.366479,276140,-1.48498
13.371921,276247,-0.61205
13.377229,276351,0.44189
13.382753,276459,1.13359
13.387747,276557,1.37137
13.392871,276658,1.17917
13.39724,276744,0.81444
13.402228,276842,0.44807
13.407318,276942,0.13212
13.412601,277046,0.05369
13.41744,277141,0.16139
13.42256,277242,-0.24029
13.428024,277350,-0.69771
13.433294,277454,-1.27988
13.438719,277561,-1.79686
13.443966,277664,-1.757
13.449617,277776,-1.33535
13.454753,277877,-0.44134
13.45921,277966,0.42936
13.464589,278072,1.16017
13.469383,278167,1.37633
13.474428,278267,1.25295
13.47847,278347,1.06571
13.483614,278449,0.51482
13.489001,278556,0.29878
13.494027,278656,0.23555
13.498663,278748,0.20324
13.503685,278848,-0.02224
13.509014,278954,-0.58248
13.514065,279054,-1.19362
13.519521,279163,-1.70958
13.525148,279275,-1.83807
13.52987,279369,-1.56893
13.534749,279467,-0.7519
13.539996,279571,0.12664
13.544822,279668,0.95709
13.549773,279767,1.42867
13.554951,279870,1.37636
13.559642,279964,0.94874
13.564896,280069,0.6286
13.570293,280177,0.32074
13.57573,280286,0.11787
13.580945,280391,0.08348
13.585681,280486,-0.22142
13.590854,280590,-0.42658
13.596037,280694,-1.13153
13.601352,280801,-1.58578
13.606785,280910,-1.83218
13.611007,280995,-1.64638
13.61563,281088,-0.92434
13.620914,281194,-0.03338
13.625678,281290,0.8308
13.631053,281399,1.30675
13.637011,281519,1.43377
13.641762,281615,1.15773
13.646692,281714,0.76632
13.652154,281825,0.35853
13.656629,281915,0.31553
13.661341,282011,0.24011
13.666459,282114,-0.06416
13.67037,282193,-0.23053
13.675301,282293,-0.79122
13.680424,282397,-1.21657
13.684659,282483,-1.55749
13.690027,282592,-1.79964
13.695258,282698,-1.40783
13.700632,282807,-0.50369
13.705349,282903,0.32473
13.710505,283008,1.01719
13.715379,283107,1.5028
13.720524,283212,1.35107
13.725094,283305,0.99192
13.729917,283403,0.65853
13.735265,283512,0.40216
13.74066,283622,0.22232
13.745573,283722,0.1408
13.75067,283826,-0.10932
13.755437,283924,-0.42547
13.760496,284027,-1.08051
13.76522,284124,-1.56468
13.770606,284234,-1.83176
13.7757,284338,-1.68617
13.780757,284442,-1.04129
13.785572,284540,-0.28975
13.790544,284642,0.59655
13.795718,284748,1.08803
13.805244,284944,1.25055
13.810011,285042,0.90625
13.814559,285135,0.6191
13.81968,285241,0.26795
13.824174,285333,0.1696
13.829331,285439,0.06865
13.834553,285547,-0.2068
13.839213,285643,-0.51995
13.844192,285745,-1.06192
13.849347,285852,-1.57803
13.854435,285956,-1.91643
13.859527,286062,-1.68214
13.864669,286168,-1.27003
13.870059,286279,-0.19359
13.875054,286382,0.70368
13.880243,286490,1.30361
13.884462,286577,1.50545
13.889087,286673,1.35127
13.894391,286782,1.11389
13.899364,286886,0.59687
13.904095,286984,0.38648
13.909382,287093,0.12728
13.913993,287189,0.14732
13.918771,287288,-0.02612
13.924032,287397,-0.22079
13.928188,287484,-0.76946
13.933021,287584,-1.28877
13.938007,287688,-1.63074
13.942691,287785,-1.61055
13.947466,287885,-1.36923
13.952774,287995,-0.68978
13.957887,288102,0.28957
13.96225,288192,0.92328
13.967677,288306,1.41195
13.972428,288405,1.54464
13.977779,288516,1.14134
13.982618,288617,0.97995
13.987195,288713,0.63119
13.99254,288825,0.57924
13.997568,288930,0.33636
14.001946,289021,0.40599
14.007263,289133,-0.01598
14.012086,289234,-0.37059
14.01697,289336,-0.82485
14.021782,289437,-1.3566
14.027103,289548,-1.71384
14.032563,289663,-1.65376
14.037118,289758,-1.16682
14.042226,289865,-0.35685
14.047567,289977,0.52379
14.052764,290087,1.14132
14.057489,290186,1.42695
14.062439,290290,1.47241
14.067587,290398,1.11349
14.072643,290505,0.83635
14.077284,290602,0.59843
14.082354,290709,0.41056
14.087776,290823,0.267
14.092557,290924,0.15384
14.097924,291037,-0.06452
14.103419,291153,-0.55757
14.108674,291264,-1.07362
14.114084,291378,-1.52289
14.119342,291489,-1.63547
14.124528,291599,-1.56651
14.129736,291709,-0.93351
14.134693,291814,-0.02241
14.139813,291922,0.71013
14.144737,292026,1.34397
14.149691,292131,1.52238
14.1546,292235,1.47115
14.159157,292332,1.28681
14.164326,292441,0.87095
14.16933,292547,0.52376
14.174441,292656,0.34708
14.179447,292762,0.27409
14.184558,292870,0.1913
14.189604,292977,-0.03328
14.194496,293081,-0.43402
14.19962,293190,-0.95159
14.204519,293294,-1.36212
14.20871,293383,-1.66183
14.213434,293484,-1.72723
14.218662,293595,-1.2724
14.223797,293704,-0.71316
14.228831,293812,0.17341
14.233136,293903,0.65984
14.238432,294016,1.37136
14.243408,294122,1.5243
14.248378,294228,1.46933
14.252755,294322,1.23482
14.257569,294424,0.96073
14.262459,294529,0.68728
14.267807,294643,0.46262
14.272519,294744,0.3152
14.277728,294855,0.22754
14.281949,294945,0.26567
14.28694,295052,-0.16318
14.291564,295151,-0.42816
14.296153,295249,-1.01602
14.300779,295348,-1.43102
14.305685,295453,-1.61731
14.311031,295567,-1.77331
14.316294,295680,-1.33067
14.321283,295787,-0.81614
14.32636,295896,-0.00803
14.331671,296010,0.73278
14.336968,296123,1.16013
14.342139,296234,1.44232
14.347295,296345,1.44858
14.352043,296447,1.23076
14.357075,296555,0.98691
14.362305,296667,0.60775
14.367811,296786,0.44532
14.372349,296883,0.32027
14.377551,296995,0.26834
14.382637,297104,0.03048
14.387788,297215,-0.12945
14.392976,297327,-0.43905
14.39815,297438,-1.05215
14.403289,297549,-1.56651
14.407632,297642,-1.70406
14.412958,297757,-1.71489
14.418584,297878,-1.35081
14.423841,297992,-0.84239
14.428924,298101,-0.14071
14.434076,298213,0.64155
14.438847,298315,1.05909
14.443829,298423,1.43386
14.449204,298539,1.555
14.454374,298651,1.32109
14.459421,298760,1.05603
14.464762,298875,0.78691
14.469406,298975,0.51661
14.474725,299090,0.3495
14.48,299204,0.37723
14.484921,299311,0.18994
14.489482,299410,0.01048
14.494442,299517,-0.11293
14.499162,299619,-0.4091
14.50392,299722,-0.77556
14.5083,299817,-1.19902
14.51365,299933,-1.53242
14.519199,300053,-1.76308
14.524022,300158,-1.66951
14.528936,300264,-1.22326
14.533982,300373,-0.84063
14.538742,300477,-0.27204
14.543821,300587,0.43551
14.549019,300700,1.01191
14.554105,300810,1.35881
14.559286,300922,1.50056
14.56421,301029,1.40223
14.568802,301129,1.30954
14.574053,301243,0.94799
14.578881,301348,0.6894
14.584202,301463,0.49234
14.588608,301559,0.3951
14.593532,301666,0.22345
14.598616,301777,0.26858
14.603769,301889,0.11924
14.609124,302005,-0.01676
14.614398,302120,-0.40051
14.619444,302230,-0.76484
14.624301,302335,-1.01161
14.628914,302436,-1.46392
14.633873,302544,-1.62043
14.638687,302649,-1.77112
14.643384,302751,-1.55505
14.648179,302855,-1.33716
14.653724,302976,-0.82625
14.658597,303082,-0.2547
14.663739,303194,0.38739
14.668824,303305,0.94831
14.673918,303416,1.27629
14.678551,303517,1.48619
14.68385,303633,1.42793
14.689144,303748,1.36925
14.694306,303861,1.00463
14.699237,303968,0.84859
14.703987,304072,0.58936
14.708702,304175,0.49445
14.713597,304281,0.40993
14.718701,304393,0.32458
14.723648,304501,0.18931
14.728545,304608,0.25551
14.733537,304717,0.04082
14.738481,304825,-0.15076
14.743903,304943,-0.53766
14.748562,305045,-0.85493
14.753957,305163,-1.14573
14.758924,305271,-1.53868
14.763732,305376,-1.73269
14.76842,305479,-1.81836
14.773473,305589,-1.76721
14.778331,305695,-1.37477
14.783374,305806,-1.12521
14.788316,305914,-0.67992
14.793014,306017,-0.18477
14.797523,306115,0.27267
14.803058,306236,0.89153
14.807714,306338,1.04934
14.812976,306453,1.36452
14.818258,306569,1.4711
14.823439,306682,1.44732
14.828407,306791,1.28624
14.834142,306916,1.15596
14.838982,307022,0.9065
14.843972,307131,0.80723
14.849356,307249,0.62521
14.854161,307354,0.39408
14.859281,307467,0.30971
14.864982,307591,0.37855
14.870448,307711,0.21085
14.875215,307815,0.29475
14.880347,307928,-0.02924
14.885007,308030,-0.11673
14.890373,308147,-0.33108
14.896327,308278,-0.85545
14.901455,308390,-1.0539
14.90699,308511,-1.44994
14.912435,308631,-1.661
14.917974,308752,-1.77345
14.922848,308859,-1.67191
14.92782,308968,-1.47717
14.93301,309081,-1.31821
14.938675,309206,-0.94146
14.943963,309321,-0.61675
14.948692,309425,-0.06155
14.953276,309525,0.28191
14.957733,309623,0.63108
14.962318,309724,0.90435
14.967937,309847,1.25084
14.972955,309957,1.46261
14.977789,310063,1.50871
14.982314,310162,1.47263
14.98771,310280,1.36639
14.992834,310392,1.26954
14.997821,310502,1.23407
15.002664,310608,0.90657
15.007651,310717,0.82587
15.012702,310828,0.67324
15.017275,310928,0.57597
15.021982,311031,0.50764
15.027137,311144,0.33065
15.032725,311267,0.3809
15.037793,311378,0.27343
15.043134,311495,0.28756
15.048289,311608,0.13171
15.05314,311714,0.17779
15.058414,311830,0.03787
15.062889,311928,-0.17249
15.067855,312036,-0.28989
15.072309,312134,-0.42722
15.076931,312235,-0.77089
15.08235,312354,-0.93437
15.087307,312463,-1.25101
15.09254,312577,-1.35376
15.09782,312693,-1.49893
15.102662,312799,-1.66962
15.107829,312912,-1.87538
15.112841,313022,-1.82711
15.117777,313130,-1.73931
15.122864,313242,-1.57394
15.128171,313358,-1.30435
15.132674,313456,-1.08585
15.137923,313571,-0.83075
15.1425,313672,-0.50965
15.147169,313774,-0.15723
15.151646,313872,0.02382
15.156815,313985,0.55311
15.161841,314095,0.70796
15.166773,314203,0.85681
15.171982,314317,1.2988
15.177166,314431,1.30432
15.182315,314543,1.42905
15.187697,314661,1.51869
15.19329,314783,1.53934
15.19828,314893,1.56444
15.202907,314994,1.43631
15.207891,315103,1.43976
15.21306,315216,1.29533
15.218358,315332,1.04862
15.223227,315438,1.16063
15.228008,315543,0.93857
15.232417,315639,0.8743
15.237086,315741,0.83881
15.24197,315848,0.74326
15.247135,315961,0.53719
15.252026,316068,0.49454
15.256731,316171,0.44745
15.261776,316281,0.44715
15.266716,316389,0.44769
15.271103,316485,0.38294
15.275803,316587,0.40766
15.280363,316687,0.37343
15.286129,316813,0.2702
15.290446,316907,0.24226
15.295109,317009,0.24784
15.299764,317110,0.24151
15.305464,317235,0.22625
15.310422,317343,0.13066
15.315052,317444,0.09245
15.320126,317555,-0.11267
15.325435,317671,-0.21401
15.330534,317782,-0.26894
15.335457,317889,-0.39932
15.340504,317999,-0.63768
15.345405,318106,-0.75862
15.350694,318221,-0.84275
15.355361,318323,-0.97509
15.360305,318431,-1.08702
15.365491,318544,-1.10733
15.374817,318747,-1.29438
15.378756,318833,-1.35277
15.384009,318947,-1.44574
15.388752,319050,-1.62325
15.394171,319168,-1.61675
15.399067,319275,-1.6459
15.408989,319490,-1.57692
15.414015,319600,-1.67742
15.419083,319710,-1.67682
15.423943,319816,-1.49788
15.428982,319925,-1.39574
15.433831,320030,-1.46529
15.438645,320135,-1.34644
15.443503,320241,-1.17694
15.448099,320340,-1.21565
15.45239,320433,-1.04154
15.462656,320656,-0.79787
15.467548,320762,-0.8238
15.47199,320859,-0.59731
15.476775,320963,-0.554
15.481671,321069,-0.40592
15.48683,321181,-0.19702
15.491143,321274,-0.18553
15.495862,321376,-0.14355
15.500907,321486,0.02571
15.5053,321581,0.16645
15.510149,321686,0.09574
15.515146,321794,0.3419
15.520027,321900,0.58982
15.525882,322026,0.53365
15.530984,322137,0.57993
15.535717,322239,0.75832
15.541147,322357,0.80918
15.54659,322474,0.85716
15.551948,322590,0.95939
15.557971,322720,0.9248
15.562658,322821,1.17966
15.567859,322934,1.07284
15.572537,323035,1.12634
15.578069,323154,1.28217
15.583004,323261,1.08149
15.587781,323364,1.18007
15.592707,323470,1.23321
15.597281,323569,1.386
15.602758,323687,1.35132
15.608028,323800,1.442
15.612757,323902,1.46597
15.6173,324000,1.45041
15.621801,324097,1.34209
15.626875,324206,1.39
15.631734,324311,1.54199
15.636842,324420,1.37141
15.641745,324526,1.55928
15.646981,324638,1.58038
15.651657,324739,1.49984
15.656261,324838,1.63
15.661539,324951,1.53075
15.666331,325054,1.47307
15.671129,325157,1.50559
15.67659,325274,1.51289
15.6815,325380,1.63381
15.686085,325478,1.54416
15.691263,325589,1.52882
15.696318,325697,1.554
15.701604,325811,1.53583
15.706733,325921,1.66548
15.71182,326029,1.47001
15.717006,326141,1.48052
15.721603,326239,1.51782
15.726996,326354,1.54257
15.732535,326473,1.46438
15.737863,326587,1.45567
15.742659,326689,1.3268
15.747636,326795,1.36295
15.752819,326906,1.49668
15.757928,327015,1.44215
15.763484,327134,1.46129
15.768391,327238,1.42658
15.773335,327344,1.48463
15.778133,327446,1.38342
15.783513,327561,1.39042
15.788159,327660,1.39535
15.793379,327771,1.38261
15.798303,327876,1.32708
15.803371,327984,1.31378
15.808512,328093,1.25028
15.813618,328202,1.13738
15.818889,328314,1.25699
15.82451,328433,1.27927
15.829122,328531,1.0263
15.833533,328625,0.93942
15.838369,328727,1.16867
15.843377,328834,0.96121
15.847857,328929,0.99526
15.852384,329025,0.81493
15.858013,329144,0.92152
15.863121,329252,0.66905
15.868103,329358,0.69254
15.873173,329465,0.54002
15.878156,329570,0.52419
15.883282,329679,0.49061
15.888307,329785,0.45372
15.893351,329892,0.27939
15.898106,329992,0.0191
15.903315,330102,0.04567
15.908353,330209,0.00916
15.912744,330301,-0.1054
15.917646,330405,-0.21292
15.922894,330515,-0.30169
15.928088,330625,-0.39693
15.932585,330720,-0.4856
15.937766,330829,-0.6337
15.94291,330937,-0.72371
15.94795,331043,-0.88656
15.952813,331145,-1.03688
15.957502,331244,-1.10698
15.962453,331348,-1.17253
15.967559,331455,-1.26372
15.97217,331552,-1.34456
15.977474,331664,-1.35058
15.982496,331769,-1.60251
15.986854,331860,-1.5046
15.991803,331964,-1.71216
15.996295,332058,-1.67733
16.000907,332155,-1.70018
16.005888,332259,-1.74212
16.010849,332363,-1.57796
16.016264,332476,-1.68038
16.02097,332575,-1.71031
16.025421,332668,-1.582
16.030796,332780,-1.61557
16.036442,332898,-1.53345
16.041297,332999,-1.59102
16.04696,333118,-1.38371
16.052012,333223,-1.25131
16.056673,333320,-1.11598
16.061741,333426,-1.03142
16.066916,333534,-0.99568
16.071834,333636,-0.91047
16.077467,333753,-0.69341
16.082543,333859,-0.67122
16.087204,333956,-0.60486
16.092169,334059,-0.47269
16.097121,334162,-0.28761
16.102165,334266,-0.14877
16.107029,334367,-0.26998
16.111749,334465,-0.08981
16.117147,334577,0.07655
16.122384,334686,-0.01197
16.127532,334792,0.13121
16.132582,334897,0.22533
16.137211,334993,0.21908
16.142305,335098,0.1614
16.147889,335214,0.25599
16.152728,335314,0.34773
16.157689,335416,0.28401
16.162631,335518,0.43656
16.167391,335616,0.4252
16.172299,335718,0.49721
16.177323,335821,0.40956
16.182095,335919,0.4534
16.187267,336026,0.54322
16.192715,336138,0.46183
16.197633,336239,0.64624
16.207849,336449,0.76914
16.212729,336550,0.98615
16.217092,336639,0.86257
16.221554,336731,0.91915
16.226551,336833,1.22091
16.231201,336929,1.20123
16.236382,337035,1.33982
16.241543,337141,1.46774
16.246421,337241,1.48445
16.251298,337340,1.4988
16.256167,337440,1.47364
16.260853,337536,1.60734
16.265298,337627,1.60738
16.270843,337740,1.5328
16.2758,337841,1.4331
16.280673,337940,1.31341
16.28573,338044,1.17769
16.290595,338143,1.04898
16.295541,338244,0.83996
16.300495,338344,0.4505
16.305601,338448,0.36986
16.315054,338641,-0.1473
16.320435,338750,-0.46001
16.325654,338856,-0.65234
16.330986,338964,-0.92697
16.336587,339078,-1.19686
16.341254,339173,-1.37408
16.346103,339271,-1.50001
16.351107,339372,-1.62141
16.35568,339465,-1.81745
16.360536,339563,-1.76161
16.366115,339676,-1.77766
16.370807,339771,-1.69751
16.380111,339959,-1.48465
16.38481,340054,-1.44648
16.390023,340159,-1.37479
16.395664,340272,-0.98619
16.400515,340370,-0.9532
16.405551,340472,-0.60825
16.415495,340672,-0.33108
16.419845,340759,-0.14247
16.424584,340855,-0.02716
16.429547,340954,0.11379
16.435298,341070,0.1195
16.440334,341171,0.14466
16.445917,341283,0.26758
16.450725,341379,0.21632
16.455378,341472,0.32967
16.461039,341586,0.29321
16.466533,341696,0.44639
16.471447,341794,0.39846
16.476843,341902,0.33966
16.481802,342001,0.55555
16.487036,342105,0.72708
16.492048,342205,0.62844
16.496553,342295,0.81237
16.501197,342388,1.02124
16.506552,342494,1.0225
16.511418,342591,1.11588
16.515922,342681,1.35379
16.520192,342766,1.36769
16.525513,342872,1.3283
16.529319,342947,1.40857
16.534668,343054,1.58345
16.539487,343149,1.55326
16.54404,343239,1.39987
16.549328,343344,1.18899
16.554734,343451,1.1092
16.560059,343557,0.94541
16.565383,343662,0.59013
16.570473,343763,0.18046
16.576051,343873,0.04672
16.580757,343966,-0.35539
16.586143,344073,-0.63705
16.596168,344270,-1.19379
16.600706,344360,-1.43312
16.605821,344461,-1.50129
16.610377,344550,-1.6672
16.615851,344658,-1.79236
16.621132,344762,-1.83921
16.626257,344863,-1.58064
16.631486,344965,-1.45836
16.636457,345063,-1.47052
16.641472,345161,-1.08183
16.646447,345259,-1.0622
16.651094,345350,-0.83941
16.656586,345458,-0.61622
16.6615,345554,-0.24483
16.665976,345642,-0.26425
16.670836,345737,-0.15013
16.676029,345838,0.0807
16.680907,345933,0.17407
16.685995,346033,0.3016
16.691261,346136,0.28053
16.696356,346235,0.32918
16.701967,346344,0.33662
16.707642,346455,0.4889
16.712821,346556,0.5899
16.717807,346653,0.59193
16.722679,346747,0.68646
16.728435,346859,0.67595
16.733751,346963,0.85401
16.738938,347063,0.97042
16.743734,347156,1.14123
16.748652,347252,1.17593
16.753673,347349,1.46599
16.758163,347436,1.57818
16.763313,347536,1.50081
16.768572,347637,1.48142
16.774091,347744,1.63239
16.779042,347840,1.6577
16.783774,347931,1.48471
16.788762,348027,1.49658
16.793525,348119,1.1198
16.798826,348221,0.87474
16.804064,348322,0.68052
16.808892,348415,0.28715
16.814099,348515,-0.01826
16.818661,348603,-0.21783
16.828269,348788,-0.81602
16.833114,348881,-1.09898
16.838005,348975,-1.26667
16.842768,349066,-1.48822
16.84813,349169,-1.55587
16.853181,349266,-1.59597
16.858157,349361,-1.63889
16.862468,349443,-1.50667
16.866878,349528,-1.34878
16.871539,349617,-1.28703
16.876212,349706,-1.18998
16.881239,349802,-0.96224
16.885965,349892,-0.72974
16.891006,349989,-0.61013
16.89603,350084,-0.38599
16.901443,350188,-0.25408
16.906176,350278,-0.03059
16.911687,350383,0.03615
16.916463,350473,0.23515
16.921389,350567,0.25734
16.925813,350651,0.22289
16.93068,350744,0.30168
16.935272,350831,0.41131
16.940447,350929,0.33323
16.945401,351023,0.43162
16.950161,351113,0.43232
16.955348,351211,0.45076
16.960053,351300,0.64355
16.965359,351401,0.62842
16.970726,351502,0.78508
16.975292,351589,0.83181
16.980439,351686,1.03434
16.985693,351785,1.14955
16.991379,351892,1.18178
16.996371,351986,1.32514
17.000979,352073,1.59219
17.005832,352165,1.57971
17.010691,352256,1.62368
17.015332,352343,1.54789
17.020179,352435,1.48133
17.024948,352524,1.51298
17.030695,352632,1.24067
17.035862,352729,0.97766
17.041382,352833,0.7764
17.04599,352919,0.55223
17.050854,353010,0.32452
17.055786,353103,0.01449
17.060585,353193,-0.32972
17.065705,353288,-0.4859
17.070653,353381,-0.7589
17.075405,353470,-0.94392
17.080539,353566,-1.33819
17.085065,353650,-1.34597
17.089775,353738,-1.62871
17.09394,353816,-1.65586
17.098908,353908,-1.60209
17.103262,353990,-1.60414
17.10871,354091,-1.60553
17.114105,354191,-1.53455
17.119207,354286,-1.41162
17.12416,354378,-1.25048
17.129225,354473,-1.00788
17.133687,354556,-0.97023
17.138994,354654,-0.68687
17.144386,354754,-0.45162
17.149617,354851,-0.32749
17.154192,354936,-0.1671
17.160041,355044,-0.03129
17.165177,355139,0.1022
17.170445,355237,0.08712
17.175676,355334,0.26125
17.180832,355429,0.23644
17.185494,355515,0.25161
17.190513,355608,0.25802
17.19525,355695,0.38436
17.200292,355788,0.36539
17.205451,355883,0.43736
17.210557,355977,0.36718
17.215581,356070,0.35534
17.220184,356155,0.53929
17.225195,356247,0.61226
17.230355,356342,0.73539
17.235087,356429,0.76337
17.240315,356525,0.72751
17.245646,356623,0.94791
17.250423,356710,0.99351
17.254846,356791,1.12715
17.260198,356890,1.18014
17.265193,356981,1.41988
17.270264,357074,1.41487
17.275534,357170,1.55003
17.280899,357269,1.48769
17.286258,357367,1.62916
17.290885,357451,1.50385
17.295526,357536,1.63062
17.300157,357621,1.47587
17.30499,357709,1.45096
17.310276,357805,1.28104
17.315371,357898,1.15872
17.320175,357986,1.1157
17.324957,358073,0.93436
17.330444,358173,0.60922
17.335595,358267,0.46697
17.340843,358362,0.20639
17.346059,358457,0.0488
17.350301,358534,-0.12774
17.354768,358615,-0.3571
17.359532,358702,-0.53379
17.364861,358798,-0.71867
17.369538,358883,-0.95802
17.374393,358971,-1.17973
17.379797,359069,-1.26373
17.384567,359156,-1.45688
17.389094,359238,-1.43147
17.393944,359325,-1.53114
17.399115,359419,-1.63894
17.404031,359508,-1.62596
17.408393,359587,-1.73809
17.413349,359676,-1.66034
17.417983,359760,-1.67927
17.422967,359850,-1.65282
17.428078,359942,-1.62592
17.433111,360033,-1.56977
17.438259,360126,-1.62477
17.442856,360209,-1.38874
17.44777,360297,-1.23289
17.452933,360390,-1.22498
17.458155,360484,-1.02663
17.462745,360567,-0.95265
17.467321,360649,-0.8281
17.472518,360742,-0.83043
17.477288,360828,-0.64199
17.483077,360932,-0.57073
17.493182,361113,-0.44026
17.497845,361197,-0.25799
17.502534,361281,-0.13563
17.507279,361366,-0.27714
17.512121,361453,-0.11385
17.517148,361543,-0.06621
17.522212,361634,-0.06153
17.526959,361719,0.0244
17.531748,361804,0.11282
17.53657,361890,0.07924
17.541934,361986,0.07215
17.547062,362078,0.18256
17.551987,362166,0.1259
17.556487,362246,0.21425
17.56118,362330,0.23777
17.565998,362416,0.25482
17.570966,362505,0.18897
17.575419,362584,0.16974
17.580118,362668,0.27684
17.584841,362752,0.21681
17.589746,362839,0.2107
17.595316,362938,0.30882
17.600451,363030,0.30448
17.605456,363119,0.34247
17.610338,363205,0.35853
17.615457,363296,0.25751
17.620566,363387,0.4175
17.625331,363472,0.36783
17.630392,363562,0.3652
17.635382,363650,0.26857
17.640975,363749,0.37348
17.646028,363839,0.44591
17.651401,363934,0.5298
17.656471,364024,0.45697
17.66118,364108,0.52723
17.666052,364194,0.4167
17.671236,364286,0.40372
17.675689,364364,0.35461
17.680656,364452,0.60291
17.685716,364542,0.57609
17.690475,364626,0.51619
17.69617,364727,0.51806
17.701336,364818,0.67176
17.706812,364915,0.76735
17.710992,364988,0.58636
17.716244,365081,0.64436
17.721161,365168,0.7231
17.727077,365272,0.62321
17.731902,365357,0.70991
17.736879,365445,0.61346
17.741814,365532,0.65941
17.746337,365612,0.78054
17.751182,365697,0.70219
17.756195,365785,0.65961
17.761438,365878,0.85105
17.76685,365973,0.76053
17.771691,366058,0.75789
17.776664,366145,0.63794
17.781612,366232,0.87522
17.786286,366314,0.77864
17.791785,366411,0.83844
17.796789,366499,0.87192
17.801986,366590,0.71927
17.80673,366674,0.77701
17.811521,366758,0.75136
17.816614,366847,0.73422
17.821652,366935,0.74749
17.826831,367026,0.70795
17.832578,367127,0.65193
17.837452,367212,0.80632
17.842123,367294,0.6737
17.847302,367385,0.61684
17.852554,367477,0.67405
17.857543,367564,0.70719
17.861921,367641,0.71378
17.866828,367727,0.72257
17.871488,367808,0.66611
17.876892,367903,0.69654
17.88216,367995,0.70544
17.88702,368080,0.63449
17.891703,368162,0.71667
17.896564,368247,0.4816
17.901837,368339,0.48376
17.906691,368424,0.45397
17.91158,368509,0.53285
17.917454,368612,0.32408
17.922439,368699,0.54575
17.927319,368784,0.39679
17.932296,368871,0.42527
17.936975,368953,0.38719
17.941479,369031,0.37162
17.946377,369117,0.56035
17.951461,369205,0.43627
17.956462,369292,0.38019
17.961469,369380,0.37951
17.966827,369473,0.36601
17.972071,369565,0.30737
17.977069,369652,0.26345
17.982083,369739,0.32489
17.986724,369820,0.32163
17.991948,369911,0.38078
17.996919,369997,0.37019
18.001996,370086,0.35625
18.007236,370177,0.22373
18.012363,370266,0.21413
18.017496,370356,0.17681
18.022881,370449,0.13424
18.027683,370533,0.18728
18.032865,370623,0.07624
18.038778,370726,-0.01314
18.044129,370819,-0.19268
18.049096,370905,-0.18988
18.054111,370992,-0.26139
18.059252,371082,-0.3695
18.063959,371163,-0.45982
18.069317,371257,-0.66455
18.074178,371341,-0.7761
18.079131,371427,-0.86459
18.083742,371507,-1.0239
18.088873,371596,-1.17584
18.094128,371688,-1.23596
18.098798,371769,-1.34979
18.103596,371852,-1.45175
18.107969,371928,-1.6669
18.112912,372014,-1.61859
18.117651,372096,-1.59178
18.122424,372179,-1.70342
18.128005,372276,-1.79763
18.132428,372352,-1.76423
18.137715,372444,-1.74303
18.142932,372535,-1.48833
18.147878,372621,-1.34089
18.153071,372711,-1.25778
18.158374,372803,-1.04377
18.163265,372888,-0.79832
18.168334,372975,-0.59428
18.173183,373060,-0.39566
18.177974,373143,-0.09503
18.18298,373230,0.16804
18.188241,373321,0.40208
18.19261,373397,0.69041
18.197118,373475,0.8776
18.201512,373551,1.10638
18.206444,373636,1.18948
18.211401,373722,1.24324
18.216598,373813,1.5614
18.221447,373897,1.51755
18.226924,373992,1.60855
18.232198,374083,1.62608
18.237012,374167,1.39185
18.242369,374259,1.32551
18.246819,374337,1.24803
18.25175,374422,1.1004
18.257122,374515,0.92648
18.262279,374605,0.86713
18.267174,374689,0.74817
18.271283,374761,0.62002
18.276469,374851,0.46558
18.281473,374937,0.43817
18.286986,375033,0.37208
18.292052,375121,0.4099
18.296855,375204,0.37727
18.301405,375283,0.326
18.305197,375349,0.3301
18.309657,375426,0.23132
18.314917,375517,0.16645
18.319579,375598,0.0622
18.324676,375687,-0.21498
18.330168,375782,-0.33746
18.335545,375875,-0.59143
18.340978,375969,-0.84501
18.346072,376058,-1.07986
18.3512,376147,-1.32794
18.356769,376243,-1.60702
18.361394,376324,-1.73236
18.366242,376408,-1.75995
18.371452,376498,-1.7439
18.376871,376592,-1.46232
18.382195,376685,-1.21748
18.386577,376761,-0.92547
18.391349,376844,-0.46287
18.396324,376930,-0.01633
18.401092,377013,0.29473
18.406013,377098,0.75372
18.411673,377196,1.04697
18.416507,377280,1.358
18.42136,377365,1.51126
18.425855,377443,1.64133
18.430559,377525,1.55858
18.435706,377614,1.30024
18.440556,377698,1.30675
18.445474,377784,0.983
18.450164,377865,0.88185
18.45504,377950,0.58498
18.459733,378032,0.61686
18.465521,378132,0.44481
18.470502,378219,0.41708
18.475994,378314,0.2994
18.480684,378396,0.30652
18.48562,378482,0.25957
18.490444,378566,0.10889
18.495473,378653,0.01844
18.5004,378739,-0.27462
18.505521,378828,-0.57821
18.51023,378910,-1.06636
18.514809,378990,-1.29887
18.519831,379077,-1.43269
18.524726,379163,-1.67545
18.530129,379257,-1.62899
18.535264,379346,-1.54597
18.540192,379432,-1.14952
18.545107,379518,-0.69906
18.549763,379599,-0.12067
18.554733,379686,0.28741
18.559848,379775,0.8061
18.564788,379861,1.2582
18.569578,379945,1.48425
18.575235,380043,1.52811
18.580246,380131,1.53477
18.585349,380220,1.23947
18.589491,380292,1.25125
18.594979,380388,0.92398
18.59997,380475,0.67016
18.604575,380556,0.52803
18.609661,380645,0.36928
18.614789,380734,0.48688
18.619768,380821,0.27277
18.624051,380896,0.21877
18.629306,380988,0.06994
18.633959,381070,-0.1886
18.639101,381160,-0.6424
18.644303,381251,-1.0245
18.649082,381334,-1.35263
18.654376,381427,-1.57206
18.659582,381518,-1.64315
18.664039,381596,-1.48294
18.668188,381669,-1.25374
18.67368,381765,-0.50822
18.679133,381861,0.09907
18.684381,381953,0.79089
18.689486,382043,1.26601
18.694873,382137,1.56063
18.699683,382222,1.58092
18.705008,382315,1.48563
18.709972,382402,1.11413
18.714833,382488,0.84419
18.719826,382576,0.66111
18.725422,382674,0.34472
18.73056,382764,0.56608
18.735614,382853,0.32167
18.740498,382939,0.14923
18.745127,383021,0.1024
18.750286,383112,-0.2347
18.755477,383203,-0.68856
18.760082,383284,-1.18994
18.764889,383369,-1.51627
18.769206,383445,-1.8048
18.774229,383534,-1.57215
18.779581,383628,-1.12572
18.784449,383714,-0.56472
18.789469,383802,0.2161
18.795203,383904,0.90879
18.799967,383988,1.42887
18.805011,384077,1.66585
18.810003,384165,1.56405
18.814519,384245,1.37324
18.819275,384329,1.11354
18.824401,384420,0.8011
18.829689,384514,0.56303
18.835109,384610,0.35744
18.840194,384700,0.25208
18.845159,384788,0.09255
18.850509,384882,-0.12444
18.855154,384965,-0.43174
18.859281,385038,-0.90679
18.864274,385127,-1.37654
18.869514,385220,-1.6745
18.875141,385320,-1.50122
18.88048,385414,-1.09919
18.885998,385512,-0.27959
18.891253,385606,0.65327
18.896079,385692,1.21978
18.90183,385794,1.50892
18.907039,385887,1.50767
18.912086,385977,1.09777
18.917369,386071,0.87226
18.922747,386167,0.59592
18.928257,386265,0.30777
18.933552,386359,0.3398
18.93843,386446,0.11028
18.943558,386538,-0.10878
18.948152,386620,-0.63758
18.953951,386724,-1.23265
18.958654,386808,-1.58335
18.968233,386979,-1.43999
18.973046,387065,-1.01758
18.977276,387141,-0.15452
18.982101,387227,0.5292
18.987013,387315,1.11883
18.992293,387410,1.4994
18.997094,387496,1.4375
19.002047,387585,1.12859
19.007197,387677,0.87556
19.012513,387773,0.55513
19.01803,387872,0.32831
19.022677,387956,0.37256
19.02783,388048,0.02913
19.032895,388139,-0.27425
19.036798,388210,-0.6882
19.042501,388312,-1.45643
19.047754,388407,-1.61773
19.052438,388491,-1.59645
19.057162,388576,-1.04141
19.061481,388654,-0.32713
19.065735,388731,0.4255
19.071244,388831,1.31926
19.076471,388925,1.54504
19.081626,389018,1.44559
19.086526,389107,1.1443
19.091267,389193,0.64243
19.096433,389286,0.41315
19.102102,389389,0.25435
19.107069,389479,0.22472
19.112299,389573,-0.11928
19.116917,389657,-0.64381
19.121851,389747,-1.12141
19.126943,389839,-1.59718
19.131873,389929,-1.56008
19.137209,390026,-0.98582
19.142842,390128,-0.10369
19.148071,390223,0.90162
19.153552,390323,1.42603
19.158678,390416,1.6325
19.163467,390503,1.18699
19.168363,390593,0.89258
19.173472,390686,0.52099
19.17837,390775,0.45129
19.183099,390861,0.28171
19.188302,390956,-0.00781
19.193632,391054,-0.72731
19.198093,391135,-1.23236
19.202776,391221,-1.73462
19.207439,391306,-1.73808
19.212445,391398,-1.22271
19.217219,391485,-0.33902
19.222384,391580,0.80521
19.227318,391671,1.4574
19.232386,391764,1.60262
19.237812,391863,1.1383
19.243258,391963,0.70277
19.247779,392046,0.44729
19.252729,392137,0.3663
19.257632,392228,0.26426
19.262322,392314,-0.08149
19.267091,392402,-0.57245
19.272394,392499,-1.38815
19.277792,392599,-1.61506
19.283226,392699,-1.52002
19.288131,392790,-0.71759
19.293473,392888,0.59993
19.298625,392983,1.2507
19.303441,393073,1.50473
19.308754,393171,1.30262
19.314085,393269,0.85165
19.319145,393363,0.42073
19.324544,393463,0.1994
19.329648,393558,0.15892
19.334451,393647,-0.28748
19.339464,393740,-0.90287
19.344851,393840,-1.58974
19.349381,393924,-1.78088
19.354479,394019,-1.36155
19.359636,394115,-0.32513
19.364447,394205,0.763
19.369695,394302,1.43214
19.374933,394400,1.58092
19.380371,394501,1.12454
19.385449,394596,0.86677
19.39007,394682,0.65591
19.394831,394771,0.36058
19.39963,394861,0.16563
19.404188,394946,-0.17335
19.409774,395051,-1.05043
19.414977,395148,-1.55329
19.419925,395241,-1.48434
19.424894,395334,-0.79888
19.429415,395419,0.11336
19.434934,395522,1.25894
19.439907,395616,1.73744
19.445362,395718,1.40954
19.450307,395811,0.85268
19.455215,395904,0.70749
19.460191,395997,0.49609
19.464537,396079,0.46586
19.469622,396175,-0.0572
19.474284,396263,-0.69346
19.478659,396345,-1.24202
19.483295,396433,-1.70171
19.488195,396525,-1.19746
19.493103,396618,-0.219
19.498275,396716,0.87481
19.503187,396809,1.56239
19.508362,396907,1.5053
19.51312,396997,0.99013
19.519104,397110,0.53098
19.523588,397196,0.40931
19.528957,397297,0.35398
19.533678,397387,-0.03424
19.538701,397483,-0.82514
19.544148,397586,-1.50693
19.549192,397682,-1.56686
19.554573,397785,-0.76313
19.559988,397888,0.36682
19.565208,397987,1.29933
19.570183,398082,1.60791
19.5747,398168,1.38152
19.579717,398264,0.73938
19.584437,398354,0.55886
19.589518,398451,0.24836
19.594661,398550,0.08116
19.599758,398647,-0.62593
19.604897,398746,-1.27271
19.610169,398847,-1.73914
19.615467,398949,-1.36753
19.621422,399063,-0.07053
19.626256,399156,1.0135
19.631035,399248,1.62767
19.636088,399345,1.34753
19.640578,399431,0.894
19.645638,399529,0.50791
19.650143,399615,0.24589
19.65546,399718,0.12058
19.660135,399808,-0.34246
19.665596,399913,-1.13786
19.670021,399999,-1.73424
19.675084,400097,-1.58568
19.680096,400194,-0.65054
19.684903,400287,0.55489
19.690179,400389,1.48993
19.695444,400491,1.61774
19.700096,400581,1.05198
19.70537,400683,0.44498
19.710031,400774,0.35821
19.71539,400878,0.17686
19.719743,400963,-0.18021
19.724638,401058,-0.85147
19.729855,401159,-1.67733
19.73506,401261,-1.66429
19.740322,401363,-0.70866
19.745551,401465,0.51783
19.750187,401556,1.39707
19.754962,401649,1.5297
19.760305,401753,1.03402
19.765062,401846,0.54699
19.769343,401930,0.42384
19.773661,402014,0.31091
19.77862,402111,-0.02285
19.782843,402194,-0.6252
19.787923,402294,-1.32798
19.792835,402390,-1.71081
19.802774,402585,0.0456
19.807636,402681,1.14533
19.812857,402783,1.56809
19.817758,402880,1.26526
19.822718,402978,0.68416
19.827951,403081,0.36207
19.833219,403185,0.20249
19.838223,403283,-0.2088
19.84289,403375,-0.79404
19.848034,403477,-1.57927
19.85319,403579,-1.6328
19.858111,403676,-0.8312
19.863232,403778,0.2961
19.868454,403881,1.39712
19.873404,403979,1.52049
19.878427,404079,0.89476
19.883264,404175,0.55788
19.888336,404275,0.28906
19.893693,404382,0.04428
19.898364,404475,-0.30382
19.902866,404564,-1.02366
19.90786,404664,-1.75619
19.912352,404753,-1.75201
19.917097,404848,-0.88979
19.922403,404954,0.37934
19.927777,405061,1.20012
19.933066,405166,1.31531
19.938122,405267,0.71448
19.94355,405376,0.24982
19.948117,405467,0.0646
19.953022,405565,-0.0254
19.958626,405678,-0.85306
19.96409,405787,-1.69891
19.970169,405909,-1.76357
19.975771,406022,-0.7997
19.980695,406121,0.40624
19.985729,406222,1.14019
19.991001,406328,1.15514
19.995975,406428,0.65582
20.001251,406534,0.16163
20.006458,406639,0.05793
20.011383,406739,-0.11913
20.016686,406846,-0.83333
20.021678,406946,-1.71329
20.026942,407053,-1.87307
20.031595,407147,-1.4053
20.036108,407238,-0.12461
20.040552,407328,0.80128
20.045536,407429,1.20088
20.050789,407535,1.01581
20.054933,407619,0.57926
20.060363,407730,0.15757
20.065186,407828,-0.02667
20.070419,407934,-0.3633
20.075238,408032,-1.22665
20.079796,408125,-1.92419
20.085188,408234,-1.9494
20.090691,408346,-0.78507
20.096219,408459,0.5912
20.101436,408566,1.29329
20.106222,408663,1.17596
20.110374,408748,0.78724
20.114782,408838,0.28064
20.119779,408940,0.05092
20.125353,409054,-0.11228
20.130098,409151,-0.62763
20.135167,409255,-1.57714
20.140091,409356,-1.99492
20.145376,409464,-1.39655
20.150325,409566,-0.34105
20.15584,409679,1.05696
20.160611,409777,1.37903
20.1654,409876,1.07251
20.169949,409969,0.57093
20.174864,410070,0.26747
20.180171,410180,0.10137
20.184935,410278,-0.39598
20.189685,410376,-1.07473
20.195418,410494,-1.91249
20.200675,410603,-1.74821
20.205406,410700,-0.96483
20.210316,410802,0.31029
20.215366,410906,1.26515
20.220223,411007,1.33784
20.225233,411111,0.7699
20.22989,411207,0.37357
20.235036,411314,0.15626
20.239594,411408,-0.07699
20.244601,411512,-0.56921
20.249648,411617,-1.31377
20.254701,411722,-1.89553
20.259983,411832,-1.65922
20.265156,411939,-0.35482
20.270269,412046,0.81619
20.275207,412149,1.36258
20.279971,412248,1.10894
20.284559,412344,0.57231
20.289368,412444,0.32288
20.293717,412535,0.15642
20.298086,412626,-0.13483
20.307535,412824,-1.39056
20.31303,412939,-1.8666
20.317748,413037,-1.5096
20.322431,413136,-0.41618
20.327364,413239,0.81478
20.332832,413354,1.43057
20.337985,413462,1.17621
20.343157,413570,0.62029
20.34761,413664,0.2469
20.352933,413776,0.01439
20.358122,413885,-0.21941
20.363167,413991,-0.93028
20.368496,414103,-1.63942
20.373827,414216,-1.86213
20.37898,414324,-0.91408
20.383329,414416,0.23583
20.388047,414516,1.06358
20.393244,414625,1.45032
20.398301,414732,0.88614
20.402665,414825,0.48352
20.407997,414937,0.24514
20.413305,415050,-0.03213
20.418468,415159,-0.44322
20.422618,415247,-1.07516
20.427636,415353,-1.72931
20.432137,415449,-1.83551
20.437286,415558,-0.97208
20.442265,415664,0.317
20.447199,415769,1.24271
20.452509,415882,1.38173
20.457574,415989,0.98824
20.462673,416098,0.57287
20.46778,416207,0.20206
20.473197,416322,0.06015
20.478503,416435,-0.43007
20.483435,416540,-1.295
20.487914,416636,-1.76704
20.492995,416744,-1.61163
20.498301,416858,-0.63224
20.502993,416958,0.59609
20.507839,417062,1.3951
20.512715,417166,1.35378
20.518069,417281,0.89793
20.523594,417399,0.32238
20.528543,417505,0.2604
20.533946,417621,0.10211
20.539181,417733,-0.54754
20.543832,417833,-1.36826
20.548459,417933,-1.71531
20.552785,418026,-1.6793
20.55757,418128,-0.70513
20.562299,418230,0.37723
20.572125,418442,1.32042
20.577122,418549,0.98136
20.58249,418665,0.47553
20.58705,418763,0.21013
20.592556,418882,0.01923
20.597776,418995,-0.22847
20.602578,419099,-0.92097
20.607751,419210,-1.58623
20.612949,419323,-1.78146
20.617774,419427,-1.10424
20.622322,419526,0.06257
20.627004,419627,0.98184
20.632005,419735,1.53997
20.636523,419833,1.30414
20.641073,419932,0.89522
20.645929,420037,0.4429
20.650994,420147,0.3211
20.656328,420263,0.19146
20.661683,420379,-0.46458
20.666773,420490,-1.26283
20.671326,420589,-1.6468
20.676618,420704,-1.49909
20.681533,420811,-0.58887
20.686345,420916,0.47392
20.691368,421025,1.33912
20.69636,421134,1.67129
20.700949,421234,1.23814
20.705704,421338,0.70523
20.710709,421447,0.35128
20.715996,421563,0.18846
20.720806,421668,0.05627
20.725808,421777,-0.44914
20.731184,421895,-1.20208
20.735996,422000,-1.68648
20.741233,422115,-1.41724
20.745993,422219,-0.52433
20.750655,422321,0.60801
20.756177,422442,1.35536
20.766688,422673,1.19871
20.771452,422777,0.65152
20.776875,422896,0.39172
20.781984,423009,0.29265
20.786838,423115,-0.04398
20.792046,423230,-0.51879
20.796863,423336,-1.39689
20.801326,423434,-1.66382
20.80618,423541,-1.41065
20.810892,423645,-0.49768
20.816462,423767,0.73383
20.82162,423881,1.44389
20.826794,423995,1.47345
20.831783,424105,1.21792
20.836594,424212,0.74095
20.841979,424331,0.42812
20.847182,424446,0.28266
20.851846,424549,0.03493
20.856281,424647,-0.48144
20.861078,424753,-1.10111
20.865993,424862,-1.5794
20.871287,424979,-1.65544
20.876971,425105,-1.00425
20.882172,425220,0.25803
20.886947,425326,1.15966
20.892018,425438,1.56977
20.897038,425550,1.36634
20.90155,425650,0.91478
20.907402,425780,0.43991
20.912546,425894,0.26081
20.917701,426009,0.25662
20.922077,426106,0.02087
20.926772,426210,-0.5486
20.931756,426321,-1.16284
20.936114,426418,-1.64663
20.941266,426533,-1.61341
20.94689,426658,-0.79837
20.951527,426761,0.07062
20.956339,426869,1.06515
20.96137,426981,1.56487
20.966095,427086,1.55899
20.970558,427186,1.02056
20.975473,427296,0.51065
20.9807,427412,0.37768
20.985425,427518,0.34232
20.990873,427640,0.04069
20.995813,427750,-0.29391
21.001424,427875,-0.87044
21.006859,427997,-1.70005
21.011735,428106,-1.83504
21.01668,428217,-1.34717
21.02178,428331,-0.47428
21.026599,428439,0.56882
21.031693,428553,1.22901
21.037142,428675,1.4013
21.042266,428790,1.1982
21.047106,428899,0.5981
21.051864,429006,0.49216
21.056943,429120,0.29887
21.062362,429241,0.30604
21.067813,429364,-0.02487
21.072634,429472,-0.43893
21.078112,429595,-1.22642
21.083715,429721,-1.7269
21.088711,429834,-1.74137
21.093858,429949,-1.22164
21.098614,430057,-0.40426
21.103563,430168,0.56365
21.109124,430293,1.18789
21.113786,430398,1.35883
21.118999,430516,1.26026
21.123773,430623,0.7156
21.129194,430746,0.46281
21.133748,430848,0.16455
21.138912,430965,0.07687
21.144258,431086,0.04717
21.148702,431186,-0.23946
21.154034,431306,-0.8805
21.159032,431419,-1.43009
21.164107,431534,-1.82187
21.169123,431647,-1.74505
21.174516,431769,-1.07216
21.179323,431878,-0.13022
21.184162,431988,0.56395
21.188372,432083,1.2243
21.193331,432195,1.55125
21.198353,432309,1.45951
21.203027,432415,1.02471
21.207728,432521,0.73045
21.2122,432622,0.41925
21.216898,432729,0.34762
21.221873,432842,0.24474
21.227062,432959,0.20701
21.231954,433070,-0.16125
21.236658,433177,-0.49563
21.241346,433284,-1.10448
21.246248,433395,-1.60167
21.250582,433493,-1.77545
21.255395,433602,-1.45039
21.259898,433705,-0.97131
21.264319,433805,-0.30179
21.268816,433907,0.43405
21.274145,434029,1.15746
21.279396,434148,1.40347
21.284183,434257,1.5311
21.288926,434365,1.26249
21.293904,434478,0.96625
21.299009,434594,0.64126
21.303852,434704,0.57026
21.30853,434811,0.319
21.313678,434928,0.22032
21.318365,435035,0.09122
21.323548,435153,-0.20192
21.32851,435266,-0.68954
21.334528,435403,-1.3333
21.339552,435518,-1.72753
21.344372,435628,-1.63311
21.349064,435735,-1.3663
21.354271,435853,-0.80184
21.364183,436079,0.78865
21.369333,436197,1.30519
21.374266,436310,1.4907
21.379805,436436,1.53565
21.385331,436562,1.21768
21.390383,436678,0.87267
21.395324,436791,0.65667
21.4005,436909,0.46334
21.405709,437028,0.26301
21.411025,437149,0.23622
21.415975,437263,-0.02947
21.42106,437379,-0.16051
21.425998,437492,-0.56677
21.431095,437608,-1.16843
21.43655,437733,-1.4231
21.441396,437844,-1.75637
21.446384,437958,-1.62403
21.451448,438074,-1.37333
21.456533,438191,-0.77776
21.461672,438308,0.01232
21.467191,438435,0.6353
21.47243,438555,1.19534
21.478304,438689,1.51123
21.483467,438807,1.50605
21.488444,438921,1.20949
21.493514,439038,1.02941
21.498544,439153,0.7396
21.504083,439280,0.52138
21.50924,439398,0.38929
21.514476,439518,0.32355
21.518887,439619,0.18836
21.523491,439725,0.11691
21.528608,439842,-0.0672
21.533197,439948,-0.28347
21.538347,440066,-0.58353
21.543417,440182,-0.98171
21.548865,440307,-1.59323
21.553967,440424,-1.82604
21.55923,440545,-1.73679
21.564111,440657,-1.63807
21.568505,440758,-1.25423
21.573373,440870,-0.73424
21.578805,440994,-0.14044
21.582973,441090,0.25639
21.587605,441197,0.76119
21.592766,441315,1.23426
21.598053,441437,1.45428
21.603316,441557,1.47722
21.608389,441674,1.3696
21.613198,441784,1.24618
21.61887,441915,0.86611
21.623743,442027,0.72567
21.628707,442141,0.53544
21.633751,442257,0.37208
21.638403,442364,0.38039
21.642904,442467,0.28577
21.647791,442580,0.28479
21.652609,442690,0.08102
21.657623,442806,-0.01674
21.663041,442930,-0.16807
21.667738,443038,-0.56713
21.672898,443157,-0.91754
21.678279,443280,-1.19739
21.683694,443405,-1.55414
21.688762,443522,-1.65309
21.693664,443634,-1.75034
21.698165,443738,-1.6162
21.70356,443862,-1.36816
21.708489,443975,-1.12215
21.713745,444096,-0.89286
21.718315,444201,-0.3424
21.723051,444310,0.20592
21.728334,444432,0.59821
21.733646,444554,0.92854
21.738408,444663,1.28885
21.743374,444778,1.46637
21.748631,444899,1.43877
21.753099,445001,1.5194
21.758671,445130,1.41147
21.763202,445234,1.10835
21.767228,445326,1.05404
21.772385,445445,0.84669
21.776878,445548,0.66146
21.7824,445676,0.56735
21.787295,445788,0.5158
21.792166,445900,0.3452
21.797475,446022,0.33963
21.802207,446131,0.29316
21.807028,446242,0.26042
21.81227,446363,0.23077
21.81717,446475,0.19984
21.822578,446600,-0.00588
21.827328,446709,-0.09626
21.833048,446841,-0.4051
21.83795,446953,-0.73285
21.842528,447059,-0.83231
21.847477,447173,-1.00046
21.852191,447281,-1.19729
21.857013,447392,-1.33448
21.861855,447503,-1.41784
21.866457,447609,-1.68332
21.871208,447718,-1.89762
21.875921,447827,-1.89382
21.880553,447933,-1.81275
21.885337,448043,-1.65636
21.890043,448151,-1.60223
21.895395,448274,-1.35397
21.900314,448388,-0.87753
21.905654,448510,-0.68592
21.910986,448633,-0.55187
21.915914,448746,-0.16898
21.92106,448864,0.21364
21.925619,448969,0.37883
21.931152,449096,0.6131
21.936118,449210,0.9934
21.940971,449322,1.18231
21.94595,449436,1.38036
21.951409,449562,1.49458
21.956013,449667,1.58364
21.961765,449800,1.59817
21.966373,449905,1.5204
21.971574,450025,1.53119
21.976751,450144,1.40962
21.981612,450255,1.40785
21.986955,450378,1.32533
21.99217,450498,1.16956
21.99734,450616,1.03829
22.002294,450730,0.97067
22.012396,450962,0.81034
22.017417,451077,0.70886
22.022222,451187,0.59792
22.026732,451291,0.57573
22.031415,451398,0.6223
22.03642,451513,0.49485
22.042016,451641,0.5018
22.04685,451752,0.42156
22.051833,451866,0.44154
22.057233,451990,0.42015
22.06192,452098,0.4738
22.067212,452219,0.45399
22.072479,452340,0.2961
22.077527,452455,0.36697
22.082733,452574,0.24565
22.088157,452699,0.29735
22.093077,452811,0.32702
22.097862,452921,0.22414
22.102838,453035,0.24985
22.10788,453150,0.24368
22.112694,453260,0.0813
22.118021,453382,0.08522
22.123087,453498,0.10263
22.128599,453624,-0.01527
22.133982,453747,-0.02344
22.138589,453853,-0.04464
22.143578,453967,-0.07328
22.148542,454080,-0.16167
22.153154,454186,-0.25525
22.158574,454310,-0.23154
22.163836,454430,-0.41346
22.16942,454557,-0.50622
22.174873,454682,-0.48454
22.179531,454788,-0.4797
22.184656,454905,-0.52474
22.190172,455031,-0.41394
22.1951,455144,-0.64074
22.20034,455263,-0.75304
22.205913,455390,-0.71689
22.211199,455511,-0.66009
22.216284,455627,-0.86229
22.221153,455738,-0.75981
22.225917,455846,-0.68562
22.231091,455964,-0.77857
22.236131,456079,-0.70678
22.241499,456201,-0.91227
22.246336,456312,-0.82597
22.251295,456425,-0.85823
22.256247,456537,-0.86274
22.260976,456645,-0.85611
22.266085,456761,-0.97608
22.270916,456871,-1.08648
22.275717,456980,-1.01117
22.286101,457216,-1.0339
22.291429,457337,-1.04542
22.29608,457443,-1.04588
22.300584,457545,-1.08927
22.305315,457653,-1.00624
22.310953,457781,-1.15666
22.315856,457892,-1.02928
22.321372,458017,-0.93081
22.326429,458132,-0.95677
22.332042,458260,-0.88468
22.34241,458495,-0.82917
22.348278,458628,-0.80935
22.35322,458740,-0.64643
22.358528,458860,-0.6187
22.362803,458957,-0.68741
22.368201,459079,-0.54
22.372325,459172,-0.55511
22.377015,459278,-0.37908
22.382248,459397,-0.48022
22.387821,459523,-0.4017
22.392993,459640,-0.26942
22.397924,459751,-0.28295
22.402647,459858,-0.25705
22.407321,459964,-0.17995
22.412456,460080,-0.15023
22.417324,460190,-0.14207
22.422276,460301,-0.03373
22.427362,460416,0.00879
22.432976,460543,0.09787
22.437948,460655,0.12458
22.443323,460776,0.12794
22.447967,460881,0.19708
22.453074,460996,0.13205
22.458271,461113,0.20086
22.463002,461220,0.36848
22.467483,461321,0.25224
22.472456,461432,0.29552
22.477591,461548,0.30833
22.482426,461657,0.34147
22.487761,461777,0.2046
22.493263,461901,0.3307
22.498605,462021,0.33289
22.503521,462131,0.40694
22.508801,462250,0.45048
22.514202,462371,0.61575
22.519096,462481,0.58262
22.524358,462599,0.58827
22.528551,462693,0.55731
22.533283,462799,0.63868
22.538576,462918,0.76306
22.543846,463036,0.79561
22.548593,463142,0.82028
22.553358,463249,1.02433
22.558078,463354,1.03596
22.563263,463470,1.17017
22.567772,463571,1.23311
22.572811,463684,1.34151
22.577689,463793,1.34981
22.583006,463912,1.45722
22.588054,464025,1.53977
22.59301,464135,1.62609
22.598943,464268,1.64657
22.603871,464378,1.5277
22.60892,464491,1.46116
22.61431,464611,1.46655
22.619798,464733,1.29041
22.624592,464840,1.22558
22.629773,464955,1.14688
22.635075,465073,0.93227
22.639452,465171,0.78185
22.64451,465283,0.39129
22.649476,465394,0.0414
22.65437,465503,-0.04737
22.659258,465611,-0.35608
22.664262,465723,-0.61424
22.669286,465834,-0.86706
22.674406,465948,-1.17741
22.678847,466046,-1.4428
22.683928,466159,-1.46905
22.688673,466264,-1.61452
22.693666,466375,-1.56969
22.699362,466501,-1.59718
22.704182,466608,-1.46131
22.709139,466718,-1.46284
22.714123,466828,-1.38271
22.71945,466946,-1.19427
22.724576,467060,-1.03423
22.730219,467184,-0.65937
22.735556,467302,-0.54933
22.740734,467417,-0.36802
22.745866,467530,-0.11439
22.751088,467645,0.09218
22.756468,467764,0.1947
22.760841,467860,0.28216
22.765743,467969,0.26831
22.770554,468075,0.30333
22.775616,468186,0.37323
22.780392,468291,0.40595
22.785332,468400,0.42005
22.790344,468510,0.47053
22.795013,468613,0.61578
22.799798,468718,0.62315
22.805499,468844,0.76997
22.810157,468946,0.79419
22.820047,469163,1.16042
22.824914,469270,1.35576
22.829586,469372,1.36495
22.834683,469484,1.69881
22.838998,469579,1.76408
22.844534,469700,1.72101
22.849638,469812,1.6228
22.855502,469940,1.51253
22.861057,470062,1.26703
22.866451,470179,0.99163
22.871109,470281,0.71875
22.876469,470398,0.2229
22.881364,470505,-0.11698
22.886391,470615,-0.40917
22.891463,470726,-0.85388
22.896176,470828,-1.02214
22.901014,470934,-1.33496
22.906218,471047,-1.52346
22.911733,471167,-1.62696
22.91677,471277,-1.53264
22.92097,471369,-1.4156
22.925934,471477,-1.27184
22.93069,471580,-1.10507
22.935816,471691,-0.93596
22.941256,471810,-0.55804
22.946058,471914,-0.3075
22.951069,472023,-0.03869
22.95561,472121,0.00874
22.960902,472236,0.1969
22.966097,472348,0.20891
22.97121,472459,0.35846
22.976239,472568,0.45176
22.980923,472670,0.49392
22.985443,472767,0.38905
22.990425,472875,0.45818
22.995016,472974,0.49379
23.000497,473093,0.72431
23.005546,473202,0.941
23.011529,473331,1.234
23.01642,473436,1.36101
23.020938,473534,1.51829
23.026172,473647,1.57641
23.031058,473752,1.53215
23.036173,473862,1.31696
23.040885,473964,1.17394
23.045822,474070,0.67186
23.050822,474177,0.25303
23.056729,474304,-0.33344
23.061485,474407,-0.75547
23.066317,474510,-1.16449
23.071434,474620,-1.51604
23.076615,474731,-1.65121
23.082241,474852,-1.71498
23.087242,474959,-1.75684
23.091924,475059,-1.70638
23.096267,475152,-1.49221
23.101047,475255,-1.17435
23.106547,475372,-0.8242
23.111811,475485,-0.47967
23.116555,475586,-0.17039
23.121039,475682,-0.0121
23.125995,475788,0.0402
23.130583,475886,0.24855
23.135851,475998,0.28734
23.141005,476108,0.46062
23.14627,476221,0.36114
23.152466,476352,0.473
23.15816,476474,0.78292
23.163424,476586,0.93553
23.168574,476695,1.14852
23.173801,476806,1.27811
23.178701,476910,1.2918
23.183945,477022,1.46663
23.188194,477112,1.45849
23.19262,477206,1.34273
23.197506,477310,1.14569
23.202096,477407,0.83582
23.206386,477498,0.39568
23.210806,477591,0.15218
23.216222,477706,-0.48436
23.221644,477821,-0.98909
23.226713,477928,-1.33675
23.232537,478051,-1.62979
23.237795,478162,-1.6997
23.243275,478278,-1.71255
23.247998,478377,-1.4349
23.252607,478475,-1.26029
23.257004,478567,-1.04826
23.261401,478660,-0.75609
23.266544,478768,-0.4186
23.271712,478877,-0.11763
23.276409,478976,-0.0703
23.280908,479071,0.08798
23.286426,479187,0.17143
23.291369,479290,0.27003
23.295688,479381,0.28349
23.300096,479474,0.36775
23.303939,479554,0.51815
23.308833,479657,0.54047
23.314249,479770,0.75743
23.319509,479881,0.97147
23.325393,480004,1.38287
23.330327,480107,1.38097
23.334889,480203,1.29478
23.339749,480304,1.22633
23.345075,480415,1.1553
23.350526,480529,0.58713
23.355742,480638,0.21947
23.360235,480732,-0.23658
23.365635,480845,-0.92925
23.370438,480945,-1.16291
23.375429,481049,-1.56584
23.380434,481153,-1.76671
23.385092,481250,-1.79156
23.390221,481357,-1.57743
23.395312,481462,-1.44443
23.400148,481563,-1.16212
23.405118,481666,-0.88339
23.409648,481760,-0.60252
23.41469,481865,-0.3486
23.418833,481951,-0.22741
23.423292,482043,-0.00083
23.428738,482156,0.20058
23.43323,482249,0.24847
23.438255,482353,0.17531
23.44322,482456,0.33432
23.448455,482564,0.45934
23.45309,482660,0.60988
23.45822,482766,0.74562
23.462968,482864,1.02261
23.467786,482963,1.17937
23.471985,483050,1.28881
23.477312,483160,1.44973
23.481994,483256,1.40294
23.486421,483348,1.20486
23.491586,483454,0.98271
23.497222,483570,0.56062
23.502788,483684,-0.02774
23.507905,483790,-0.53988
23.51298,483894,-1.07034
23.517812,483993,-1.49123
23.523213,484104,-1.63639
23.532937,484303,-1.81739
23.538125,484410,-1.49019
23.542977,484509,-1.3769
23.547885,484610,-1.15327
23.553247,484719,-0.6733
23.558592,484829,-0.37652
23.563914,484937,-0.17432
23.573564,485135,-0.00418
23.578467,485235,0.26691
23.583486,485337,0.24503
23.588183,485433,0.20367
23.593188,485535,0.35785
23.598109,485635,0.40742
23.602806,485731,0.65322
23.607411,485824,0.8756
23.612339,485925,1.04754
23.617628,486032,1.29155
23.622855,486138,1.25885
23.627946,486242,1.34232
23.6337,486359,1.27494
23.638947,486465,0.89881
23.64382,486564,0.44688
23.648548,486660,0.03892
23.653473,486760,-0.42175
23.658532,486862,-1.00661
23.663271,486958,-1.25773
23.668355,487061,-1.67307
23.673131,487157,-1.70117
23.678585,487268,-1.86127
23.683001,487357,-1.77438
23.687816,487454,-1.60054
23.692796,487555,-1.36252
23.697611,487652,-1.09373
23.702261,487745,-0.62648
23.70737,487848,-0.35694
23.712682,487955,-0.22039
23.717477,488052,-0.14972
23.722384,488151,0.13259
23.726652,488236,0.07642
23.731766,488339,0.3044
23.737066,488446,0.21414
23.742129,488547,0.23014
23.747424,488654,0.44001
23.752203,488750,0.46426
23.756898,488844,0.73851
23.761759,488941,0.98103
23.767019,489047,1.23922
23.771848,489143,1.3188
23.775726,489221,1.46357
23.780829,489323,1.45082
23.785895,489424,1.44047
23.795836,489623,0.92335
23.801055,489727,0.59614
23.805612,489818,0.11085
23.810741,489921,-0.3898
23.815639,490018,-0.79658
23.820798,490121,-1.24175
23.825781,490220,-1.53181
23.831055,490326,-1.74626
23.836229,490428,-1.80115
23.84138,490531,-1.67795
23.846727,490637,-1.64034
23.851328,490729,-1.37882
23.856027,490822,-1.09316
23.861352,490928,-0.84518
23.866239,491025,-0.60198
23.871233,491124,-0.15581
23.876375,491226,-0.31437
23.881898,491335,-0.12178
23.886743,491431,0.19182
23.891839,491532,0.20153
23.896598,491627,0.26817
23.900549,491705,0.29936
23.905233,491797,0.39333
23.910578,491903,0.32881
23.914617,491983,0.51939
23.919511,492080,0.65423
23.924236,492173,0.73118
23.929339,492274,0.94107
23.934556,492376,1.09527
23.939984,492483,1.21586
23.945062,492584,1.35698
23.950093,492683,1.41761
23.954866,492777,1.49233
23.959223,492862,1.32251
23.964511,492966,1.18643
23.969141,493058,0.98795
23.974003,493153,0.83608
23.979395,493259,0.36357
23.984495,493359,0.1274
23.98957,493459,-0.3852
23.995045,493566,-0.76975
23.999822,493660,-1.04329
24.005027,493762,-1.23975
24.010325,493866,-1.52136
24.015386,493965,-1.50259
24.02076,494070,-1.69893
24.02632,494179,-1.63764
24.031431,494279,-1.42247
24.036255,494373,-1.37428
24.045664,494557,-0.92493
24.050309,494648,-0.70367
24.055313,494746,-0.3929
24.05978,494833,-0.19059
24.06434,494922,-0.14444
24.069198,495017,0.03004
24.073854,495107,0.18262
24.079163,495211,0.08826
24.084338,495312,0.23175
24.088993,495402,0.23202
24.093933,495498,0.36383
24.098981,495597,0.4988
24.104241,495699,0.44673
24.109805,495807,0.37085
24.114723,495903,0.60013
24.119799,496001,0.61491
24.124585,496094,0.69913
24.129514,496190,0.78023
24.134592,496288,1.02872
24.140173,496396,1.12671
24.145534,496500,1.23171
24.15112,496609,1.34049
24.156004,496703,1.57319
24.160733,496795,1.51748
24.165424,496886,1.60866
24.169895,496972,1.55481
24.174674,497065,1.52005
24.179041,497149,1.57424
24.184244,497250,1.39691
24.194713,497452,1.15473
24.199817,497550,0.85747
24.204873,497648,0.60158
24.209826,497743,0.31939
24.214844,497840,0.01418
24.220073,497941,-0.16576
24.225041,498037,-0.33122
24.230411,498140,-0.72687
24.235671,498241,-0.84711
24.240524,498335,-1.17375
24.245145,498424,-1.23787
24.250823,498533,-1.40443
24.255732,498627,-1.51128
24.261201,498733,-1.58597
24.2659,498823,-1.722
24.270883,498919,-1.58677
24.275992,499017,-1.71671
24.28073,499108,-1.73281
24.285551,499200,-1.6333
24.290435,499294,-1.55836
24.295821,499397,-1.43894
24.300844,499494,-1.32393
24.306329,499599,-1.33324
24.311533,499698,-1.12289
24.31632,499790,-1.05831
24.321662,499892,-0.88397
24.327234,499999,-0.75516
24.333042,500110,-0.67958
24.338509,500215,-0.5358
24.343288,500306,-0.2934
24.34734,500384,-0.46524
24.352532,500483,-0.24714
24.357155,500571,-0.0652
24.362187,500667,-0.06186
24.367515,500769,0.05847
24.372355,500861,0.07041
24.377915,500967,0.18529
24.382653,501058,0.03957
24.387324,501147,0.1275
24.392002,501236,0.22515
24.397548,501342,0.3089
24.402352,501433,0.18493
24.406662,501515,0.33042
24.411346,501605,0.23165
24.416534,501703,0.3484
24.421515,501798,0.43044
24.426922,501901,0.40008
24.432056,501999,0.2824
24.436647,502086,0.38785
24.441647,502181,0.50673
24.446925,502282,0.42734
24.452082,502380,0.387
24.457357,502480,0.39155
24.462658,502581,0.35032
24.467913,502680,0.40119
24.47251,502768,0.34579
24.478195,502876,0.36405
24.483325,502973,0.4076
24.48845,503070,0.4112
24.493578,503167,0.28399
24.498826,503267,0.39587
24.503391,503353,0.41741
24.508081,503442,0.50522
24.513274,503541,0.45793
24.518361,503637,0.35948
24.523735,503739,0.40994
24.52912,503841,0.36887
24.53436,503940,0.45037
24.539221,504032,0.49478
24.543936,504121,0.38181
24.548665,504211,0.35261
24.553419,504301,0.43955
24.558872,504404,0.57676
24.563501,504491,0.50145
24.56893,504594,0.41345
24.573743,504685,0.28471
24.577921,504764,0.40511
24.583335,504866,0.34012
24.588171,504958,0.38909
24.593688,505062,0.34114
24.598893,505160,0.29698
24.604064,505258,0.34405
24.608807,505347,0.3437
24.613736,505440,0.24881
24.618272,505526,0.2008
24.622866,505613,0.22637
24.627938,505708,0.26691
24.633421,505812,0.20938
24.637865,505896,0.28218
24.642972,505992,0.13822
24.647369,506075,0.24902
24.652174,506165,0.11182
24.657143,506259,0.15691
24.662444,506359,0.03605
24.66759,506456,0.07967
24.672524,506549,0.17567
24.677532,506643,0.05995
24.683034,506747,0.08615
24.687675,506834,0.10206
24.692746,506930,-0.01868
